time,acc_x,acc_y,acc_z,gyro_x,gyro_y,gyro_z,ma_acc_x,ma_acc_y,ma_acc_z,ma_gyro_x,ma_gyro_y,ma_gyro_z
1686018362.969122,-0.0,0.0,1.0,-0.05,-0.08,0.0,0.0,0.0,1.0,-0.030000000000000002,-0.057499999999999996,-0.010000000000000002
1686018362.992071,-0.01,0.0,1.0,-0.06,-0.18,-0.03,-0.0014285714285714286,0.0,1.0,-0.036,-0.08199999999999999,-0.014000000000000002
1686018363.029018,0.0,0.0,1.01,0.06,-0.14,-0.05,-0.0011111111111111111,0.0011111111111111111,1.001111111111111,-0.02,-0.09166666666666667,-0.02
1686018363.0519085,-0.0,-0.0,1.0,-0.05,0.08,-0.02,-0.001,0.001,1.001,-0.024285714285714282,-0.06714285714285714,-0.02
1686018363.3592188,-0.0,0.0,1.01,0.03,-0.03,-0.02,-0.001,0.0,1.0,0.004999999999999999,-0.01,-0.009999999999999998
1686018363.382082,-0.0,-0.0,1.0,0.02,0.05,-0.03,-0.001,0.0,1.0,0.009999999999999998,0.0009999999999999996,-0.013000000000000001
1686018363.5490923,-0.0,-0.0,1.0,0.02,0.06,0.02,-0.002,0.001,1.002,-0.004000000000000001,0.014000000000000002,-0.021999999999999995
1686018363.572022,-0.0,0.0,1.0,-0.08,0.02,-0.03,-0.002,0.001,1.001,-0.012,0.020999999999999998,-0.019
1686018363.6891286,-0.0,0.0,1.0,-0.05,0.08,-0.02,-0.002,0.0,0.998,-0.017,0.040999999999999995,-0.009000000000000001
1686018363.712065,0.0,0.0,1.0,0.05,0.03,-0.09,-0.001,0.0,0.998,-0.007000000000000001,0.036,-0.013000000000000001
1686018363.749195,-0.0,-0.0,1.0,0.0,0.05,0.02,0.0,0.0,0.998,-0.010000000000000002,0.040999999999999995,-0.001999999999999999
1686018363.7721038,0.0,-0.0,1.0,0.0,-0.08,0.02,0.0,0.0,0.998,-0.008,0.028000000000000004,-0.001999999999999999
1686018363.7981162,0.0,-0.0,1.0,0.03,0.0,0.06,0.0,0.0,0.998,-0.005,0.028000000000000004,-0.0009999999999999996
1686018363.8210418,0.0,-0.0,1.0,-0.08,-0.03,-0.08,0.0,0.0,0.998,-0.015000000000000003,0.018999999999999996,-0.011
1686018363.9491782,-0.0,-0.01,1.0,-0.09,-0.05,-0.12,-0.001,-0.001,0.999,-0.006,-0.006,-0.032
1686018363.9721506,-0.0,-0.0,1.0,0.05,0.03,-0.06,-0.001,-0.001,0.999,0.004000000000000001,-0.011000000000000001,-0.036
1686018364.0092373,-0.01,0.0,1.0,0.05,0.02,-0.08,-0.002,-0.001,0.999,0.004000000000000001,-0.011999999999999999,-0.035
1686018364.0321553,0.0,0.0,1.0,0.02,0.0,-0.08,-0.002,-0.001,0.999,0.006000000000000001,-0.017000000000000005,-0.045
1686018364.069234,-0.0,-0.0,1.0,-0.05,0.03,-0.03,-0.002,-0.001,1.0,0.0010000000000000009,-0.006000000000000001,-0.05
1686018364.0921428,0.0,0.0,1.0,-0.08,0.02,-0.06,-0.002,-0.001,1.0,-0.009999999999999998,-0.004000000000000001,-0.06200000000000001
1686018364.1292682,-0.0,-0.0,1.0,0.0,-0.03,-0.02,-0.001,-0.001,1.002,-0.001999999999999999,-0.003999999999999999,-0.05600000000000001
1686018364.1521173,-0.01,-0.0,1.0,0.02,0.0,-0.05,-0.002,0.0,1.002,-0.0029999999999999988,-0.0010000000000000002,-0.05500000000000001
1686018364.249235,-0.0,0.0,0.99,0.0,0.05,0.05,-0.002,0.0,1.0,-0.004999999999999999,0.011000000000000001,-0.031
1686018364.272119,0.01,0.0,1.0,-0.06,-0.14,-0.03,-0.001,0.0,1.0,-0.015999999999999997,-0.006,-0.028000000000000004
1686018364.4490805,-0.01,0.0,1.0,0.03,-0.09,-0.03,0.0,0.002,0.998,-0.016999999999999998,0.001999999999999999,0.0
1686018364.4720538,-0.01,0.0,1.0,-0.11,-0.08,-0.03,-0.001,0.002,0.999,-0.027999999999999997,-0.008000000000000002,-0.005
1686018364.509124,-0.0,-0.0,1.0,-0.11,0.03,-0.02,-0.002,0.002,0.999,-0.03899999999999999,-0.01,-0.012
1686018364.532099,0.0,0.0,1.0,-0.08,-0.02,-0.03,-0.002,0.002,0.999,-0.040999999999999995,0.001999999999999999,-0.012
1686018364.5690656,0.0,-0.0,1.0,-0.05,0.0,-0.05,-0.003,0.001,0.999,-0.052000000000000005,0.003999999999999998,-0.017
1686018364.5920606,-0.0,-0.0,1.0,-0.08,-0.06,-0.08,-0.003,0.0,0.999,-0.051000000000000004,-0.01,-0.025
1686018364.6290746,-0.0,-0.0,1.0,-0.03,0.06,0.06,-0.003,0.0,1.0,-0.059,-0.013000000000000001,-0.022000000000000002
1686018364.6521015,-0.0,-0.01,1.0,0.03,0.02,-0.02,-0.002,-0.001,1.0,-0.05,-0.017,-0.022
1686018364.9491212,-0.0,-0.0,1.0,-0.11,0.24,-0.02,-0.001,0.0,1.001,-0.009,-0.101,0.001999999999999999
1686018364.9720867,-0.0,-0.0,1.0,-0.02,-0.15,0.02,0.0,0.0,1.001,-0.0019999999999999974,-0.11599999999999999,0.006
1686018365.0089984,-0.0,0.0,1.0,-0.08,0.0,-0.03,0.0,0.001,1.0,-0.007999999999999995,-0.11599999999999999,0.008
1686018365.0319073,0.0,-0.0,1.0,0.05,-0.21,0.02,0.0,0.001,1.0,0.0020000000000000044,-0.12799999999999997,0.01
1686018366.9003038,-0.01,0.01,0.97,2.9,-13.02,-2.9,-0.038000000000000006,0.016000000000000004,1.069,-4.430000000000001,-63.28699999999999,-0.6700000000000002
1686018367.860147,-0.02,-0.01,1.0,0.0,-0.11,-0.17,-0.019999999999999997,-0.005,1.0,0.025,-0.277,-0.126
1686018367.883118,-0.01,-0.0,1.0,0.3,-1.91,-0.27,-0.019,-0.004,1.0,0.049,-0.43899999999999995,-0.13599999999999998
1686018368.2103324,-0.05,-0.01,1.03,0.38,-5.88,-0.95,-0.023000000000000003,-0.006,1.003,0.06399999999999999,-0.671,-0.25
1686018368.2332385,-0.1,-0.04,1.0,2.05,-18.03,-10.38,-0.031000000000000007,-0.01,1.003,0.26399999999999996,-2.429,-1.237
1686018368.4203656,0.03,-0.06,1.03,-44.3,-17.25,-10.62,0.0,-0.024,1.032,-17.093,-11.728000000000002,-7.736
1686018368.5603182,-2.0,-0.41,0.8,84.78,-189.1,-41.25,-0.156,-0.13699999999999998,0.9880000000000002,-25.651,-44.068,-9.803999999999998
1686018368.5831735,1.15,0.01,0.12,156.38,-249.68,-186.84,-0.041999999999999996,-0.13099999999999998,0.8959999999999999,-7.306000000000003,-68.816,-28.061
1686018368.630345,-0.1,-0.13,-0.11,175.32,448.27,38.15,0.10799999999999998,-0.11699999999999999,0.5900000000000001,16.822,-2.3299999999999956,-15.128
1686018368.653285,0.03,-0.17,-0.01,-58.59,341.34,-43.73,0.10599999999999998,-0.125,0.485,14.655999999999997,33.22100000000001,-18.131
1686018369.7403717,0.01,-0.17,1.02,-32.83,7.55,-3.62,0.001,-0.095,1.019,-36.303000000000004,3.6350000000000002,1.0779999999999998
1686018369.7632656,0.01,-0.16,1.0,-30.9,-0.35,-1.17,0.0010000000000000002,-0.11000000000000001,1.018,-36.957,2.4829999999999997,0.9289999999999997
1686018369.8103986,0.0,-0.22,0.97,-30.41,0.9,-1.8,0.0,-0.15,1.0050000000000001,-37.845,1.0429999999999997,0.3520000000000002
1686018369.8333144,0.0,-0.23,0.97,-27.76,21.2,0.47,0.0,-0.16599999999999998,0.9970000000000001,-37.241,2.632,0.57
1686018369.8803358,-0.03,-0.2,0.99,-15.01,8.59,1.26,-0.009,-0.192,0.991,-32.513000000000005,4.906000000000001,0.26399999999999996
1686018369.9032547,-0.03,-0.23,0.97,-14.3,3.05,0.05,-0.012,-0.19799999999999998,0.9880000000000001,-28.808999999999997,5.573,-0.34300000000000014
1686018370.0203717,-0.04,-0.26,0.99,-23.4,3.77,-2.32,-0.031999999999999994,-0.238,0.9809999999999999,-21.183,8.606999999999998,-0.41500000000000004
1686018370.0432808,-0.04,-0.28,1.01,-20.26,2.14,-0.32,-0.032,-0.24500000000000002,0.984,-20.168,8.730999999999998,-0.267
1686018370.0903606,-0.03,-0.31,0.94,-18.02,1.22,3.85,-0.037,-0.26999999999999996,0.9789999999999999,-19.499000000000002,5.070000000000001,-0.16699999999999995
1686018370.1132565,-0.04,-0.26,0.94,-15.4,6.69,2.96,-0.03799999999999999,-0.273,0.976,-19.538000000000004,4.88,0.0030000000000000695
1686018370.1603696,-0.03,-0.33,0.91,-0.74,12.83,-0.66,-0.03899999999999999,-0.29400000000000004,0.958,-17.412000000000003,6.795999999999999,0.9189999999999999
1686018370.1833186,-0.03,-0.32,0.94,-5.85,13.88,-0.23,-0.038,-0.30100000000000005,0.951,-15.841999999999999,7.322,1.161
1686018370.230368,-0.11,-0.29,0.94,-9.52,8.36,1.68,-0.049,-0.307,0.938,-13.774000000000001,7.651999999999999,1.315
1686018370.2533147,-0.11,-0.37,0.9,1.77,19.89,-0.06,-0.05500000000000001,-0.31400000000000006,0.933,-11.257,9.264,1.541
1686018370.3003561,-0.09,-0.33,0.97,-5.56,17.64,-1.52,-0.06999999999999999,-0.323,0.9410000000000001,-7.127000000000001,13.514,0.7689999999999998
1686018370.3234103,-0.06,-0.3,1.0,-5.76,7.22,-0.2,-0.072,-0.31599999999999995,0.9500000000000002,-5.900999999999999,14.114,0.36399999999999966
1686018370.5222392,-0.11,-0.31,0.92,10.17,-1.76,-7.13,-0.10600000000000001,-0.31700000000000006,0.954,2.7150000000000007,-12.933000000000002,-3.778
1686018370.6304188,-0.04,-0.32,1.0,8.99,17.71,-9.38,-0.071,-0.30700000000000005,0.9730000000000002,6.470999999999999,-7.950999999999999,-6.595999999999999
1686018370.6533747,-0.05,-0.29,1.1,3.68,-53.88,-5.05,-0.065,-0.308,0.9799999999999999,5.2090000000000005,-14.228,-6.405000000000001
1686018370.7002683,-0.1,-0.31,0.78,31.86,-31.56,-4.6,-0.06899999999999999,-0.30300000000000005,0.9630000000000001,10.203,-23.958999999999996,-6.9319999999999995
1686018370.7232547,0.03,-0.26,0.91,37.68,-14.54,-1.04,-0.05499999999999999,-0.29800000000000004,0.962,13.696000000000002,-20.757,-7.373
1686018370.7702508,-0.04,-0.27,1.06,21.92,-47.4,-11.41,-0.045999999999999985,-0.29100000000000004,0.984,16.704,-18.357000000000003,-7.51
1686018370.7932446,0.05,-0.27,0.92,29.4,-39.31,-2.47,-0.032,-0.28700000000000003,0.975,18.627000000000002,-22.112000000000002,-7.044
1686018370.8403938,0.02,-0.23,1.02,12.09,20.23,2.26,-0.001000000000000004,-0.26200000000000007,0.954,22.557000000000002,-23.197000000000006,-5.106
1686018370.8632925,0.05,-0.21,1.03,12.0,13.88,0.89,0.014000000000000002,-0.255,0.968,22.858,-23.58,-4.078999999999999
1686018370.910316,0.09,-0.19,0.96,34.93,-25.59,-2.57,0.04,-0.227,0.9890000000000001,26.764,-12.443999999999999,-3.2719999999999994
1686018370.9332616,0.11,-0.19,1.0,25.86,-11.92,-7.89,0.05500000000000001,-0.219,0.9809999999999999,26.163999999999998,-10.48,-3.601
1686018371.050178,0.06,-0.17,1.01,0.27,22.14,-4.18,0.073,-0.18499999999999997,0.9770000000000001,20.863,-1.3319999999999985,-4.437
1686018371.1203787,0.08,-0.17,0.97,-1.41,-8.57,-5.47,0.066,-0.172,0.9870000000000001,14.918000000000001,-3.7729999999999997,-5.325
1686018371.1432786,0.08,-0.17,1.0,-2.87,-13.02,-8.11,0.06799999999999999,-0.16899999999999998,0.9870000000000001,13.431000000000001,-6.462999999999999,-6.225
1686018371.1903975,0.04,-0.15,0.93,9.97,-2.54,-4.23,0.068,-0.16299999999999998,0.985,9.139,-6.681000000000002,-7.0600000000000005
1686018371.2133455,0.08,-0.16,0.93,7.58,8.0,-0.09,0.066,-0.16199999999999998,0.9809999999999999,7.311000000000002,-4.688999999999999,-6.279999999999999
1686018371.4003594,0.02,-0.16,0.96,8.71,17.59,-2.93,0.049,-0.15,0.9780000000000001,2.0380000000000003,6.877,-2.0989999999999998
1686018371.4704182,-0.0,-0.16,0.99,-0.75,-5.31,-0.2,0.026000000000000002,-0.15699999999999997,0.976,-0.4599999999999998,9.754999999999999,-0.8459999999999999
1686018371.4933171,0.03,-0.16,0.97,-0.32,-10.83,3.17,0.024,-0.15799999999999997,0.9790000000000001,0.04800000000000025,6.6,-0.711
1686018371.5403922,0.06,-0.18,1.06,-9.89,1.11,4.36,0.027000000000000003,-0.16399999999999998,0.992,-0.09799999999999968,5.223000000000001,0.681
1686018371.5632787,0.05,-0.18,1.03,-0.41,-14.11,-2.29,0.028999999999999998,-0.16599999999999998,0.9979999999999999,-0.6649999999999998,3.871000000000001,0.446
1686018371.6103983,0.04,-0.15,0.97,-0.87,8.32,3.08,0.030999999999999993,-0.16399999999999998,0.9930000000000001,-0.692,0.32799999999999974,0.8389999999999999
1686018371.6333628,0.03,-0.16,0.97,-4.53,17.97,1.43,0.033999999999999996,-0.16299999999999998,0.9920000000000002,-2.016,0.366,1.275
1686018371.6804116,0.02,-0.18,1.03,-4.68,0.81,-2.09,0.037,-0.16899999999999998,1.007,-2.6980000000000004,0.806,1.3269999999999997
1686018371.7034755,0.02,-0.18,1.0,1.92,-6.48,0.26,0.034,-0.16999999999999998,1.003,-2.431,0.6890000000000003,1.373
1686018371.820454,0.04,-0.16,1.02,-6.09,5.1,3.17,0.029999999999999992,-0.173,1.004,-1.8800000000000001,7.042999999999999,1.515
1686018371.8432546,0.04,-0.17,0.97,0.38,0.29,-2.8,0.029999999999999992,-0.172,0.999,-1.7550000000000001,6.24,0.9269999999999999
1686018371.9603677,-0.01,-0.17,0.98,-0.32,-1.02,1.67,0.013999999999999999,-0.16999999999999998,0.99,0.1639999999999999,3.4659999999999997,1.2040000000000002
1686018371.983186,0.03,-0.16,0.99,-0.2,6.33,0.42,0.013000000000000001,-0.16799999999999995,0.99,-0.44099999999999995,4.215999999999999,1.057
1686018372.030347,0.0,-0.17,0.99,-2.78,7.89,0.48,0.005999999999999999,-0.17099999999999999,0.991,-0.8739999999999999,3.906,0.7709999999999999
1686018372.0533094,0.0,-0.16,1.01,-4.63,0.6,0.36,0.005999999999999999,-0.16899999999999998,0.9960000000000001,-0.8469999999999999,3.0200000000000005,0.5559999999999999
1686018372.1703522,0.01,-0.17,0.98,-0.29,4.6,1.11,0.003,-0.16899999999999998,0.9930000000000001,-0.7949999999999998,-0.11600000000000002,0.026999999999999958
1686018372.1933095,0.01,-0.17,1.01,-2.2,6.3,0.39,0.002,-0.16899999999999998,0.9950000000000001,-0.9829999999999999,0.6159999999999999,-0.10100000000000006
1686018372.3103383,0.01,-0.19,1.03,0.77,-11.05,-0.29,0.008999999999999998,-0.16999999999999998,1.012,-0.34499999999999986,-2.0260000000000002,0.04499999999999999
1686018372.3333027,0.0,-0.19,1.08,-0.5,-10.2,-0.05,0.008999999999999998,-0.173,1.02,-0.18699999999999992,-1.9980000000000004,0.26000000000000006
1686018372.3803213,0.02,-0.2,1.09,12.27,5.04,0.32,0.006,-0.181,1.052,0.999,-0.7929999999999999,0.236
1686018372.4032989,0.01,-0.22,1.14,4.32,9.26,1.46,0.006999999999999999,-0.187,1.064,1.383,0.453,0.6000000000000001
1686018372.4503531,0.02,-0.18,1.08,15.8,-7.19,-1.55,0.016999999999999998,-0.18799999999999997,1.092,3.7840000000000003,-0.16900000000000004,0.8629999999999999
1686018372.5902736,0.01,-0.12,0.97,12.9,-3.95,3.08,0.016,-0.15099999999999997,1.0180000000000002,11.543,-0.3979999999999998,1.262
1686018372.6132894,0.03,-0.11,0.91,10.24,5.71,4.14,0.015000000000000003,-0.145,0.9980000000000002,12.616999999999999,1.1929999999999998,1.6810000000000003
1686018372.660445,0.01,-0.08,0.95,6.96,3.86,5.73,0.0030000000000000005,-0.12200000000000003,0.9719999999999999,12.068999999999999,1.22,2.727
1686018372.6832604,-0.01,-0.09,0.93,2.96,-4.42,3.26,0.0020000000000000005,-0.11500000000000002,0.9659999999999999,11.304999999999998,0.5580000000000002,2.4979999999999998
1686018372.7304242,0.0,-0.1,0.92,-4.27,-2.84,0.57,0.0010000000000000002,-0.10299999999999998,0.932,7.991,1.0130000000000001,3.5360000000000005
1686018372.7532954,-0.01,-0.06,0.87,-4.41,-4.57,1.47,0.0010000000000000005,-0.09399999999999997,0.9219999999999999,5.926,0.25999999999999995,3.498
1686018372.8003879,0.01,-0.09,0.95,-14.87,-0.66,-2.48,0.005000000000000001,-0.08200000000000002,0.9109999999999999,1.1840000000000002,-0.9799999999999999,2.732
1686018372.8233588,-0.01,-0.11,1.0,-24.74,0.84,-2.23,0.007000000000000001,-0.08399999999999999,0.9189999999999999,-2.5799999999999996,-0.501,2.201
1686018372.8704453,0.02,-0.12,0.96,-21.61,14.17,-0.47,0.006,-0.093,0.93,-8.213,0.6880000000000001,1.154
1686018372.940428,-0.02,-0.17,1.0,-8.65,-6.8,0.2,0.004000000000000001,-0.122,0.97,-12.739,1.2810000000000001,0.215
1686018372.9633,0.01,-0.18,1.01,-3.41,-6.77,-1.08,0.003,-0.133,0.9810000000000001,-13.810999999999998,1.8850000000000002,-0.385
1686018373.0804403,0.01,-0.17,1.01,-0.2,-3.01,0.44,-0.004,-0.174,1.012,-11.284,3.657000000000001,-0.2719999999999999
1686018373.1033752,0.0,-0.17,1.0,-1.61,-7.67,0.15,-0.005,-0.175,1.0130000000000001,-8.971,2.806,-0.034000000000000016
1686018373.5004523,-0.03,-0.19,1.0,0.23,1.14,-0.69,-0.018000000000000002,-0.19099999999999998,0.9970000000000001,-2.367,0.6420000000000001,0.466
1686018373.523408,-0.01,-0.19,0.99,4.35,6.72,0.59,-0.018,-0.19199999999999998,0.9970000000000001,-1.714,1.7880000000000003,0.558
1686018373.5704458,-0.01,-0.19,0.98,2.24,-1.49,0.93,-0.011999999999999997,-0.19199999999999998,0.998,-1.2100000000000002,2.253,0.5519999999999999
1686018373.5933647,0.01,-0.18,1.01,1.43,-4.57,0.45,-0.009999999999999998,-0.18999999999999997,1.0,-0.8490000000000002,1.3780000000000001,0.499
1686018373.7805078,-0.03,-0.17,0.94,-1.44,-0.56,0.47,-0.005,-0.17899999999999996,0.978,0.5770000000000002,-0.6330000000000002,0.29700000000000004
1686018373.8032668,-0.04,-0.17,0.93,-3.26,2.2,-1.26,-0.01,-0.17799999999999996,0.97,-0.18399999999999994,-1.0850000000000002,0.11199999999999999
1686018373.9204414,-0.03,-0.18,0.89,5.19,7.22,8.98,-0.034999999999999996,-0.154,0.924,0.4779999999999999,0.9480000000000001,1.7270000000000003
1686018373.943323,-0.02,-0.15,0.95,10.6,0.84,9.98,-0.037,-0.152,0.924,1.374,1.134,2.761
1686018374.0603395,0.01,-0.21,1.07,-18.8,19.98,-0.14,-0.004,-0.16999999999999998,0.974,-0.3930000000000001,0.8350000000000002,3.306
1686018374.0832002,0.05,-0.21,1.05,-13.64,6.53,1.4,0.005,-0.18,0.9870000000000001,-1.719,1.566,3.411
1686018374.620468,-0.03,-0.22,0.98,0.32,-2.21,-1.95,-0.021,-0.21600000000000003,0.986,-0.3990000000000001,2.332,-0.30100000000000005
1686018374.6433115,-0.03,-0.21,0.98,2.23,-10.21,-1.5,-0.022,-0.215,0.984,0.392,1.0629999999999995,-0.36700000000000005
1686018374.9114025,0.19,-0.22,0.95,-4.84,-78.57,-21.37,0.06699999999999999,-0.215,0.9879999999999999,-0.2879999999999999,-35.919,-8.940999999999999
1686018374.9813163,0.22,-0.24,1.0,-10.54,-58.48,-1.79,0.129,-0.219,0.993,-2.8,-47.896,-9.659000000000002
1686018375.051304,0.37,-0.23,0.91,-8.63,-55.19,-2.39,0.23600000000000004,-0.229,0.9710000000000001,-3.8939999999999997,-59.71400000000001,-9.337
1686018375.1215417,0.34,-0.22,0.93,-10.45,-52.9,6.14,0.304,-0.23500000000000001,0.962,-6.8340000000000005,-65.201,-6.767
1686018375.1914842,0.5,-0.24,0.86,1.73,-103.74,-7.1,0.39299999999999996,-0.246,0.9389999999999998,-7.700999999999999,-71.53099999999999,-4.8500000000000005
1686018375.401341,0.56,-0.24,0.79,7.05,-34.29,-8.93,0.5520000000000002,-0.25100000000000006,0.852,-3.2940000000000014,-49.59,-1.2349999999999999
1686018375.4713886,0.64,-0.25,0.81,-7.44,-21.67,-2.0,0.595,-0.253,0.8320000000000001,-2.08,-43.519999999999996,-2.224
1686018375.541363,0.65,-0.23,0.77,-0.08,-6.63,6.8,0.617,-0.248,0.8150000000000001,-1.4800000000000002,-27.124000000000002,-0.9410000000000001
1686018375.8214605,0.51,-0.29,0.96,-5.13,98.92,1.25,0.5900000000000001,-0.275,0.8559999999999999,-5.038,26.062,4.557
1686018376.1015403,0.23,-0.26,1.03,9.34,6.6,-1.86,0.24100000000000002,-0.25,0.959,9.732000000000001,63.65500000000001,-4.046
1686018376.1714282,0.2,-0.23,1.01,26.8,-6.74,3.83,0.227,-0.22799999999999998,0.9800000000000001,16.5,46.751999999999995,-4.6259999999999994
1686018376.241528,0.23,-0.17,0.98,14.6,1.43,-0.78,0.22200000000000003,-0.211,0.998,18.782000000000004,30.429999999999996,-4.147
1686018376.3115404,0.22,-0.15,1.01,-0.9,-4.11,-5.77,0.22200000000000003,-0.178,0.976,14.457999999999998,11.901999999999997,-1.8359999999999999
1686018376.3814707,0.24,-0.16,1.0,-13.22,14.33,4.27,0.23200000000000004,-0.15000000000000002,0.9639999999999999,11.124999999999996,2.814,-1.5339999999999996
1686018376.4515448,0.17,-0.19,1.01,-10.84,0.93,-0.51,0.221,-0.15,0.97,6.649999999999999,0.12800000000000009,-1.284
1686018376.521503,0.19,-0.2,1.01,-4.18,1.67,3.02,0.21399999999999997,-0.16599999999999998,0.986,0.6530000000000005,2.161,-0.5209999999999999
1686018376.5914834,0.17,-0.2,1.0,-1.35,8.08,5.58,0.19699999999999998,-0.18799999999999997,0.999,-3.314,3.781,0.7520000000000001
1686018376.8014882,0.18,-0.19,0.99,-0.51,1.82,-2.63,0.18799999999999997,-0.19399999999999998,0.999,-1.576,5.135,3.7409999999999997
1686018376.9415677,0.14,-0.19,0.98,1.59,1.26,-2.02,0.162,-0.18999999999999997,0.9830000000000002,-1.306,4.481,1.284
1686018377.0815673,0.12,-0.19,0.99,8.33,4.36,-1.4,0.13200000000000003,-0.18799999999999997,0.976,0.2859999999999999,5.555000000000001,1.456
1686018378.4006388,-0.18,0.06,0.83,24.35,105.83,-266.87,0.11400000000000002,-0.20400000000000001,0.8240000000000001,-40.895999999999994,71.802,-189.41299999999995
1686018378.9414418,-0.11,0.25,1.15,-31.95,-96.21,38.63,-0.14600000000000002,0.15699999999999997,1.0480000000000003,-0.5539999999999996,-1.8780000000000001,0.5469999999999999
1686018379.4916146,0.74,-0.11,0.69,12.42,64.81,3.89,0.788,-0.091,0.675,14.313999999999998,-8.921999999999997,7.934999999999998
1686018380.8716068,-0.76,0.06,0.58,-3.34,2.62,-4.92,-0.7379999999999999,0.059999999999999984,0.5660000000000001,-2.1410000000000005,6.2490000000000006,-6.1659999999999995
1686018380.941611,-0.8,0.07,0.57,-1.91,0.05,-2.29,-0.7449999999999999,0.05,0.5630000000000001,-2.4219999999999997,3.7560000000000002,-4.632
1686018381.0116518,-0.76,0.05,0.55,-3.61,2.29,1.67,-0.7409999999999999,0.047999999999999994,0.563,-1.7260000000000002,3.2320000000000007,-4.073
1686018381.4316318,-0.4,-0.15,0.62,-53.55,-107.89,-4.98,-0.63,-0.005,0.6900000000000001,-26.006999999999998,-52.107000000000006,1.7609999999999997
1686018381.6416328,-0.23,0.29,0.86,52.42,-38.71,19.77,-0.42600000000000005,0.101,0.8420000000000002,17.521999999999995,-78.237,22.489
1686018381.7116191,-0.32,0.28,0.95,18.71,-22.69,31.62,-0.378,0.179,0.885,37.097,-61.03100000000002,28.938
1686018382.097679,-0.25,0.22,0.92,13.55,-20.44,-1.95,-0.23399999999999999,0.2720000000000001,0.9029999999999999,4.142,-14.092000000000002,1.5879999999999999
1686018382.201661,-0.08,0.33,0.93,23.98,-14.98,3.74,-0.191,0.27999999999999997,0.9,16.404,-24.785,2.757
1686018382.9616683,0.13,0.7,0.64,-31.41,6.48,-4.9,0.12600000000000003,0.737,0.621,4.876999999999998,6.997,-5.680999999999999
1686018383.3715637,-0.14,-0.51,1.0,-213.34,192.56,-75.25,0.08099999999999999,0.22199999999999998,0.9259999999999999,-175.696,46.510999999999996,5.741999999999999
1686018383.4075217,-0.1,-0.22,1.18,-61.89,-38.86,-21.94,0.024000000000000007,0.07600000000000003,0.977,-172.02,41.312,1.4020000000000021
1686018383.4304798,-0.1,-0.22,1.06,-146.45,-34.39,-17.56,-0.001999999999999999,0.018000000000000013,0.9970000000000001,-176.525,34.813,-3.969
1686018383.4534357,-0.06,-0.25,0.92,-184.0,-18.12,-74.42,-0.012999999999999998,-0.05099999999999999,0.999,-188.967,28.078999999999997,-17.064
1686018383.5815966,0.09,-0.58,0.88,-89.53,14.63,-37.94,-0.010000000000000004,-0.46099999999999997,0.9120000000000001,-169.92900000000003,22.889999999999997,-47.61
1686018383.6515756,0.15,-0.78,0.59,-82.54,-43.04,-28.47,0.036,-0.6050000000000001,0.795,-117.1,15.264000000000001,-49.845000000000006
1686018383.7915468,0.11,-0.81,0.68,-59.5,-6.27,-22.3,0.091,-0.7390000000000001,0.6549999999999999,-79.45499999999998,-10.767,-29.865999999999996
1686018383.8275716,0.16,-0.87,0.55,-53.62,44.48,-27.13,0.11199999999999999,-0.79,0.6039999999999999,-78.498,-6.8799999999999955,-26.923000000000002
1686018383.8504875,0.11,-0.88,0.58,-44.24,53.08,-14.02,0.12,-0.8070000000000002,0.599,-71.93100000000001,5.461000000000002,-24.899
1686018383.8734384,0.11,-0.88,0.56,-51.83,29.04,-10.2,0.11600000000000002,-0.817,0.5960000000000001,-68.161,6.902000000000001,-22.125
1686018383.931514,0.18,-0.92,0.42,-37.67,-9.11,-17.41,0.118,-0.86,0.5440000000000002,-60.471999999999994,8.338000000000001,-18.308
1686018383.9676387,0.19,-0.92,0.39,-14.93,1.95,-6.5,0.13999999999999999,-0.883,0.505,-53.164999999999985,15.383,-17.397
1686018383.990536,0.13,-0.9,0.38,-5.53,8.29,-6.53,0.142,-0.892,0.475,-44.616,18.503999999999998,-15.474
1686018384.0125947,0.11,-0.89,0.46,-7.01,-5.13,-6.03,0.13699999999999998,-0.8950000000000001,0.462,-38.684999999999995,14.965,-14.199000000000002
1686018384.0375385,0.16,-0.91,0.46,-13.82,-12.5,-8.05,0.13999999999999996,-0.9019999999999999,0.44299999999999995,-34.129,11.863999999999999,-13.234
1686018384.060585,0.19,-0.94,0.44,-10.21,-0.44,-1.82,0.14799999999999996,-0.908,0.43099999999999994,-29.199999999999996,12.447,-11.185999999999998
1686018384.0834372,0.14,-0.93,0.46,-5.74,2.93,0.68,0.15499999999999997,-0.914,0.42800000000000005,-24.412,8.292000000000002,-8.404999999999998
1686018384.1775732,0.15,-0.93,0.45,-18.08,2.23,-3.89,0.14599999999999996,-0.9239999999999998,0.47300000000000003,-10.22,-1.4929999999999999,-4.137
1686018384.2005212,0.13,-0.94,0.45,-11.65,2.35,-4.39,0.148,-0.929,0.4720000000000001,-9.892,-1.4529999999999998,-3.9259999999999997
1686018384.2235007,0.15,-0.93,0.44,-12.24,-3.49,-4.38,0.14899999999999997,-0.931,0.4680000000000001,-10.563,-2.6310000000000002,-3.7110000000000007
1686018384.2476752,0.16,-0.94,0.43,-11.34,-0.47,-3.94,0.146,-0.9329999999999998,0.4640000000000001,-10.996,-2.165,-3.5020000000000002
1686018384.2705522,0.18,-0.94,0.43,-11.38,7.1,-0.93,0.14999999999999997,-0.9339999999999998,0.461,-10.751999999999999,-0.20500000000000007,-2.79
1686018384.292643,0.13,-0.91,0.47,-22.65,9.2,0.63,0.15,-0.9329999999999998,0.46299999999999997,-11.996,0.759,-2.5450000000000004
1686018384.31769,0.11,-0.92,0.37,-25.1,9.46,-5.37,0.14400000000000004,-0.9309999999999998,0.43100000000000005,-13.931999999999999,1.4120000000000001,-3.1500000000000004
1686018384.3407102,0.19,-0.95,0.4,-28.27,-3.19,-8.98,0.14700000000000002,-0.9309999999999998,0.4240000000000001,-16.216,1.4209999999999998,-3.78
1686018384.3634934,0.19,-0.95,0.35,-25.64,1.95,-7.53,0.151,-0.9329999999999998,0.41400000000000003,-18.124000000000002,1.8579999999999999,-4.276000000000001
1686018384.3876493,0.18,-0.95,0.4,-24.89,6.57,-4.23,0.15899999999999997,-0.9359999999999999,0.40499999999999997,-19.124000000000002,3.171,-4.301
1686018384.4105437,0.14,-0.96,0.34,-30.39,6.62,-4.09,0.15699999999999997,-0.9390000000000001,0.396,-20.355,3.6099999999999994,-4.321000000000001
1686018384.4335263,0.16,-0.95,0.39,-30.63,-1.25,-7.94,0.15699999999999997,-0.9399999999999998,0.392,-22.252999999999997,3.25,-4.676
1686018384.5276225,0.15,-0.98,0.29,-15.88,4.41,-6.3,0.172,-0.969,0.344,-26.004,1.7380000000000002,-6.790000000000001
1686018384.5505466,0.18,-0.97,0.32,-13.31,-2.17,-9.29,0.17099999999999999,-0.9710000000000001,0.341,-24.824999999999996,0.575,-7.1819999999999995
1686018384.5735152,0.2,-0.99,0.36,-17.74,-5.01,-7.31,0.173,-0.9750000000000002,0.33699999999999997,-23.772,0.39299999999999996,-7.014999999999999
1686018384.5977137,0.19,-0.99,0.26,-16.71,0.47,-7.68,0.179,-0.982,0.316,-22.879,0.24500000000000002,-7.029999999999999
1686018384.6204922,0.19,-0.99,0.26,-8.71,1.28,-6.29,0.182,-0.986,0.30300000000000005,-21.261000000000003,-0.284,-7.236
1686018384.6426485,0.2,-0.97,0.3,-9.85,-3.62,-5.76,0.186,-0.9860000000000001,0.29799999999999993,-19.207,-1.3079999999999998,-7.4030000000000005
1686018384.6676154,0.25,-1.0,0.27,-12.41,-3.44,-2.92,0.19499999999999998,-0.985,0.291,-17.384999999999998,-1.5270000000000001,-6.901000000000001
1686018384.6905656,0.21,-0.98,0.25,-2.81,5.28,1.77,0.20099999999999998,-0.9850000000000001,0.28700000000000003,-14.301999999999998,-0.363,-5.726
1686018384.7135289,0.16,-0.95,0.39,-17.43,-3.19,1.04,0.202,-0.982,0.29700000000000004,-13.616,-0.569,-4.738999999999999
1686018384.7376335,0.19,-0.99,0.23,-17.89,2.92,-6.75,0.20099999999999998,-0.984,0.276,-13.274000000000001,-0.30700000000000005,-4.949
1686018384.760513,0.18,-1.0,0.18,-5.95,-0.8,-9.47,0.19999999999999998,-0.985,0.267,-12.281,-0.8280000000000001,-5.266
1686018384.7826357,0.25,-1.01,0.29,-4.77,-14.54,-7.76,0.20599999999999996,-0.9869999999999999,0.27,-11.427,-2.065,-5.113
1686018384.8076093,0.27,-1.02,0.27,0.8,-3.29,-0.15,0.22000000000000003,-0.9949999999999999,0.265,-9.573000000000002,-1.893,-4.397
1686018384.8305678,0.16,-0.99,0.28,-2.47,2.18,3.56,0.211,-0.9949999999999999,0.26399999999999996,-8.149,-1.722,-3.2729999999999997
1686018384.853448,0.16,-0.98,0.28,-6.33,2.65,-1.11,0.202,-0.993,0.265,-7.911,-1.585,-2.755
1686018384.877562,0.22,-1.0,0.25,-4.14,4.0,-3.38,0.20800000000000002,-1.0,0.251,-7.340000000000001,-0.8229999999999998,-2.5169999999999995
1686018384.9005191,0.21,-1.0,0.28,-3.71,0.5,-1.08,0.211,-1.001,0.255,-6.469999999999999,-0.4289999999999997,-2.3329999999999997
1686018384.9226544,0.2,-1.0,0.26,-4.39,-0.98,-0.92,0.21199999999999997,-1.002,0.258,-6.628,-1.055,-2.6019999999999994
1686018384.9475937,0.22,-1.0,0.25,-3.53,-2.54,-1.47,0.21200000000000002,-1.001,0.26000000000000006,-5.238,-0.9899999999999999,-2.8529999999999993
1686018384.9705153,0.22,-1.0,0.24,-3.11,-1.1,-0.03,0.20800000000000002,-0.999,0.26000000000000006,-3.7600000000000002,-1.392,-2.181
1686018384.9926026,0.21,-0.99,0.27,-3.14,1.13,0.26,0.202,-0.9959999999999999,0.26,-3.479,-1.1989999999999998,-1.208
1686018385.0175726,0.21,-1.0,0.26,-5.61,-0.95,1.05,0.21200000000000002,-0.999,0.257,-3.563,0.16000000000000003,-0.32700000000000007
1686018385.0403945,0.21,-1.0,0.24,-5.01,-0.77,0.51,0.21200000000000002,-0.999,0.25600000000000006,-4.144,0.4119999999999999,-0.261
1686018385.063439,0.2,-1.0,0.22,-2.14,-0.41,0.09,0.21000000000000002,-0.999,0.25300000000000006,-4.111,0.153,-0.6080000000000001
1686018385.0875397,0.2,-1.0,0.27,-3.04,-3.02,0.24,0.21000000000000002,-0.998,0.253,-3.782,-0.41400000000000003,-0.47300000000000003
1686018385.1105325,0.21,-0.99,0.25,-3.85,-1.19,-1.25,0.21000000000000002,-0.9970000000000001,0.254,-3.753,-0.933,-0.25999999999999995
1686018385.1335692,0.22,-1.0,0.27,-4.0,2.21,-0.74,0.21000000000000002,-0.9970000000000001,0.256,-3.782,-0.762,-0.22599999999999998
1686018385.1577237,0.21,-1.01,0.22,-4.99,2.32,0.75,0.209,-1.0,0.25,-3.842,-0.43200000000000005,-0.05899999999999998
1686018385.1805992,0.21,-1.01,0.24,-2.08,1.41,1.55,0.209,-1.001,0.24700000000000005,-3.697,-0.037000000000000074,0.24300000000000002
1686018385.2034516,0.2,-0.99,0.25,-3.28,-1.41,1.22,0.20800000000000002,-1.0,0.246,-3.714,-0.06799999999999992,0.36800000000000005
1686018385.2275443,0.22,-1.0,0.22,-3.77,-2.29,-0.59,0.21000000000000002,-1.0,0.24500000000000002,-3.777,-0.41,0.28300000000000003
1686018385.250578,0.23,-1.01,0.22,-2.75,0.39,2.24,0.21200000000000002,-1.002,0.24000000000000005,-3.4910000000000005,-0.2760000000000001,0.402
1686018385.272683,0.2,-0.99,0.23,-0.84,1.34,2.59,0.21200000000000002,-1.001,0.236,-3.0740000000000003,-0.06500000000000002,0.61
1686018385.3677251,0.2,-1.01,0.24,-11.25,6.06,1.64,0.207,-1.001,0.242,-4.767999999999999,1.3189999999999997,1.504
1686018385.437651,0.17,-1.0,0.22,-19.25,-7.08,1.97,0.19599999999999998,-1.002,0.24200000000000005,-8.876,1.137,1.7730000000000001
1686018385.4604928,0.21,-1.01,0.2,-24.98,-4.9,1.31,0.19699999999999998,-1.004,0.23900000000000002,-10.997000000000002,0.8760000000000001,1.9629999999999999
1686018385.4835062,0.21,-1.01,0.23,-26.45,-2.11,2.23,0.19799999999999998,-1.005,0.23900000000000002,-13.366999999999999,0.6260000000000001,1.9619999999999997
1686018385.5075881,0.19,-1.0,0.2,-36.71,-4.62,3.16,0.19599999999999998,-1.006,0.223,-16.954,0.029999999999999805,2.019
1686018385.5305939,0.19,-1.01,0.11,-35.56,-4.42,1.53,0.195,-1.005,0.211,-20.242,-0.35500000000000015,2.005
1686018385.5528712,0.21,-1.02,0.14,-34.87,-10.57,2.77,0.196,-1.0059999999999998,0.20099999999999998,-23.269000000000002,-1.4010000000000002,2.04
1686018385.5777671,0.16,-1.02,0.12,-35.2,-11.2,-1.65,0.18999999999999997,-1.0079999999999998,0.17800000000000002,-25.645,-3.1260000000000003,1.7200000000000002
1686018385.6006494,0.21,-1.03,0.07,-34.08,-13.7,-4.57,0.19299999999999998,-1.0109999999999997,0.163,-27.927999999999997,-5.101999999999999,1.099
1686018385.6227767,0.24,-1.05,0.08,-24.23,-6.11,-0.14,0.19999999999999998,-1.0159999999999998,0.14900000000000005,-28.608000000000004,-5.886,0.7809999999999999
1686018385.6817431,0.19,-1.02,0.07,-0.96,3.53,-2.02,0.197,-1.0239999999999998,0.1,-26.485999999999997,-4.973999999999999,0.2639999999999999
1686018385.7517629,0.23,-1.02,0.03,31.07,15.7,5.77,0.21400000000000002,-1.0309999999999997,0.05,-16.737000000000002,-1.8009999999999995,0.025
1686018386.0317652,0.15,-0.83,0.6,89.1,-7.01,4.23,0.10799999999999998,-0.89,0.535,107.992,11.088,19.735999999999997
1686018386.0676167,0.1,-0.84,0.65,54.0,4.78,12.26,0.11100000000000002,-0.852,0.5890000000000001,110.285,9.995999999999999,20.384999999999998
1686018386.1376598,0.17,-0.67,0.62,108.59,15.02,31.65,0.12599999999999997,-0.804,0.583,97.652,-3.3329999999999997,21.053000000000004
1686018386.2417336,0.05,-0.65,0.77,114.65,33.34,7.43,0.10100000000000002,-0.7180000000000001,0.682,83.91499999999999,0.9639999999999997,20.970999999999997
1686018386.3117275,-0.0,-0.4,0.98,75.41,-54.6,30.18,0.049000000000000016,-0.6050000000000001,0.8109999999999999,87.788,-8.564,23.906
1686018386.451713,0.2,-0.29,0.93,81.74,8.35,29.8,0.092,-0.413,0.943,93.43299999999999,-29.606,27.673000000000002
1686018386.5217085,0.03,-0.15,0.98,113.86,31.77,32.68,0.16,-0.291,0.9369999999999999,98.837,-24.194999999999997,27.088
1686018386.7117858,0.06,0.2,1.05,48.02,-29.82,-5.34,0.06600000000000002,0.053000000000000005,0.9990000000000002,88.454,2.5,20.966
1686018386.7817113,0.18,0.13,1.0,23.73,-49.16,14.48,0.081,0.125,1.003,73.631,-3.035999999999999,15.585999999999999
1686018386.817667,0.19,0.12,0.94,14.66,-37.41,8.14,0.10200000000000002,0.13999999999999999,0.9880000000000001,63.839999999999996,-8.648,13.374
1686018386.840651,0.12,0.16,0.97,22.99,-40.18,23.25,0.10900000000000003,0.14200000000000002,0.974,54.753,-15.843,12.431000000000001
1686018386.8635852,0.18,0.18,0.96,8.38,-8.83,-1.04,0.126,0.14499999999999996,0.9780000000000001,43.565,-18.724,10.660999999999998
1686018386.9577088,0.21,0.17,0.99,20.26,-10.6,-6.81,0.189,0.15999999999999998,0.9720000000000001,17.701,-22.488,1.8910000000000005
1686018386.9805682,0.22,0.23,1.0,12.53,-15.43,-2.09,0.193,0.16999999999999998,0.9720000000000001,14.151999999999997,-21.049,2.216
1686018387.0035417,0.24,0.21,0.93,9.62,-20.47,-3.34,0.2,0.178,0.969,13.906,-19.643,2.8280000000000003
1686018387.0277026,0.22,0.21,0.95,19.38,-23.82,-2.59,0.213,0.193,0.9649999999999999,13.471,-17.108999999999998,1.1210000000000004
1686018387.0506454,0.23,0.14,0.97,15.2,-26.41,11.47,0.21800000000000003,0.189,0.966,13.525,-16.008999999999997,1.4540000000000004
1686018387.073581,0.29,0.18,0.91,7.62,-12.96,17.02,0.23000000000000004,0.188,0.96,11.988000000000001,-13.287,0.8310000000000001
1686018387.0977135,0.27,0.24,0.94,28.47,-18.3,16.35,0.244,0.202,0.951,13.997000000000003,-14.234,2.5700000000000003
1686018387.1206431,0.3,0.16,0.89,36.24,-15.83,3.38,0.253,0.201,0.942,16.919,-15.554000000000002,3.2730000000000006
1686018387.1435678,0.4,0.19,0.8,65.89,-14.39,-2.27,0.27199999999999996,0.20299999999999999,0.923,22.574,-16.274,2.717
1686018387.2016435,0.3,0.39,0.96,87.01,-34.92,7.46,0.281,0.246,0.923,38.65599999999999,-21.497000000000003,6.903999999999999
1686018387.3076458,0.31,0.49,0.86,65.28,-11.28,-16.45,0.286,0.3590000000000001,0.852,71.206,-25.538,1.2550000000000001
1686018387.3306859,0.32,0.56,0.82,37.25,20.66,-26.45,0.288,0.3990000000000001,0.8450000000000001,74.16900000000001,-22.176000000000002,-3.092
1686018387.3535662,0.35,0.48,0.8,15.08,38.03,-19.17,0.283,0.42800000000000005,0.8450000000000001,72.83000000000001,-16.543,-6.644
1686018387.3776813,0.43,0.98,1.26,-35.19,22.53,-25.41,0.31300000000000006,0.5359999999999999,0.8860000000000001,65.68700000000001,-12.707000000000003,-9.523
1686018387.4007661,0.52,0.39,-0.24,-189.85,-18.39,-55.31,0.335,0.536,0.7659999999999999,40.113,-13.107,-14.826999999999998
1686018387.422721,0.26,0.31,0.68,-17.52,-15.16,2.68,0.34900000000000003,0.541,0.7549999999999999,27.90100000000001,-11.379000000000001,-16.924
1686018387.447715,0.43,0.19,0.78,-13.64,-13.43,24.11,0.367,0.49400000000000005,0.768,17.836000000000002,-9.23,-15.258999999999997
1686018387.4706547,0.35,0.43,0.86,-10.12,17.59,-2.41,0.37000000000000005,0.492,0.776,6.057,-2.235000000000001,-14.078999999999999
1686018387.492843,0.32,0.43,0.81,10.62,29.8,-35.38,0.371,0.48600000000000004,0.7710000000000001,-3.623999999999998,4.473000000000001,-16.592999999999996
1686018387.517692,0.19,0.55,0.92,3.77,14.78,17.31,0.339,0.49400000000000005,0.7969999999999999,-13.431999999999997,8.513,-13.648000000000001
1686018387.5406775,0.26,0.5,0.85,0.77,-0.59,1.67,0.33100000000000007,0.4640000000000001,0.778,-19.883,9.581999999999999,-11.836
1686018387.5635686,0.31,0.43,0.84,-7.7,13.23,-24.18,0.319,0.409,0.736,-24.377999999999997,8.839,-11.608999999999998
1686018387.6576877,0.42,0.66,0.87,-2.69,43.76,-16.59,0.28,0.51,0.868,-2.8579999999999997,18.217999999999996,-7.928
1686018387.680656,0.16,0.15,0.95,-7.47,29.85,0.02,0.264,0.4820000000000001,0.8819999999999999,-2.2409999999999997,22.546,-10.337000000000002
1686018387.7027965,0.2,0.39,0.87,16.68,37.08,-6.5,0.26800000000000007,0.46399999999999997,0.873,0.43900000000000006,24.494999999999997,-10.746000000000002
1686018387.7276707,0.19,0.49,0.89,2.27,64.09,-37.62,0.26,0.4600000000000001,0.877,-0.3959999999999997,27.924,-10.970000000000002
1686018387.7507713,0.06,0.26,0.93,-33.22,74.15,-3.02,0.23499999999999996,0.44299999999999995,0.8859999999999999,-4.095,33.861000000000004,-13.003
1686018387.7735972,0.13,0.39,0.79,-19.04,66.41,-23.41,0.21499999999999994,0.43699999999999994,0.8779999999999999,-6.076,40.56099999999999,-15.511000000000001
1686018387.8676429,0.12,0.31,0.73,-7.26,53.94,-36.51,0.13200000000000003,0.42299999999999993,0.8590000000000002,-5.8020000000000005,53.84400000000001,-20.269
1686018387.8905811,0.06,0.36,0.83,-10.63,78.05,-75.16,0.11800000000000002,0.42000000000000004,0.8550000000000001,-6.596000000000001,57.273,-26.125999999999998
1686018387.9126906,0.08,0.68,0.75,-1.11,72.5,-57.01,0.10800000000000001,0.43600000000000005,0.8380000000000001,-5.960000000000001,61.538,-31.828999999999997
1686018387.937696,-0.16,0.23,0.97,-27.08,58.81,-41.67,0.05099999999999999,0.40700000000000003,0.85,-10.336,63.71099999999999,-35.346
1686018387.9607933,-0.08,0.22,0.91,-9.26,15.5,-24.65,0.03,0.39,0.8619999999999999,-11.489,58.852,-34.049
1686018387.9827354,-0.12,0.37,0.85,5.41,11.56,-18.65,-0.0010000000000000022,0.36100000000000004,0.8559999999999999,-7.626,52.592999999999996,-35.612
1686018388.0075855,-0.1,0.45,0.94,-10.42,27.71,-12.36,-0.036,0.3630000000000001,0.8629999999999999,-6.764,48.723,-34.50699999999999
1686018388.030531,-0.14,0.48,0.95,-35.67,34.99,-24.87,-0.062,0.38,0.885,-10.047,44.112,-34.989
1686018388.0527856,-0.24,0.34,1.0,-17.14,14.65,-7.67,-0.098,0.38299999999999995,0.9119999999999999,-11.791,41.278999999999996,-32.025
1686018388.1928096,-0.08,0.39,0.88,15.31,-31.16,18.33,-0.12799999999999997,0.393,0.915,-6.273999999999999,-3.0649999999999986,-1.5859999999999999
1686018388.2176125,-0.15,0.39,0.88,10.59,-16.09,-4.74,-0.13399999999999995,0.378,0.9029999999999999,-5.756,-5.83,-0.19500000000000117
1686018388.2406454,0.02,0.4,0.87,14.3,-18.03,7.46,-0.10800000000000001,0.384,0.8899999999999999,-3.2840000000000003,-10.404,1.7869999999999997
1686018388.2635744,-0.09,0.43,0.94,13.19,-17.76,13.88,-0.094,0.38700000000000007,0.8919999999999998,1.6020000000000003,-15.678999999999998,5.662
1686018388.287669,0.09,0.5,0.69,19.83,-41.91,4.24,-0.09299999999999999,0.403,0.8579999999999999,5.299,-21.335,6.852999999999999
1686018388.3106225,0.04,0.34,0.89,20.69,-21.14,26.66,-0.06,0.394,0.85,6.773999999999999,-23.496,10.357999999999999
1686018388.3327405,-0.26,0.35,1.04,22.99,-15.38,44.57,-0.071,0.397,0.8659999999999999,8.828,-24.262999999999998,12.913
1686018388.461692,0.04,0.51,0.81,30.9,11.35,34.21,-0.026000000000000006,0.45099999999999996,0.8700000000000001,21.699,-4.154999999999999,22.553
1686018388.531687,-0.07,0.45,0.89,34.42,44.33,38.71,-0.025,0.48199999999999993,0.8700000000000001,26.312,9.331,27.648000000000003
1686018388.5676618,-0.14,0.47,0.84,27.7,45.94,27.73,-0.029000000000000005,0.47000000000000003,0.8560000000000001,27.099,18.116,29.997000000000003
1686018388.8479095,-0.17,0.58,0.82,-73.2,-13.53,14.99,-0.07200000000000001,0.611,0.7459999999999999,28.632000000000005,24.709,16.509999999999998
1686018388.8707771,-0.08,0.55,0.7,6.45,-12.62,-24.96,-0.073,0.6119999999999999,0.7330000000000001,28.175000000000004,25.076999999999998,15.002
1686018388.8928437,-0.12,0.74,0.71,15.4,-14.0,-14.8,-0.07999999999999999,0.633,0.7280000000000001,29.047000000000004,25.1,15.648
1686018388.9178205,-0.01,0.56,0.67,-16.42,-32.24,-25.04,-0.076,0.6200000000000001,0.6900000000000001,25.494999999999997,23.022000000000002,17.073
1686018388.9407325,-0.09,0.67,0.74,3.61,-6.05,-20.81,-0.07500000000000001,0.6380000000000001,0.6910000000000001,20.909000000000002,21.740000000000002,17.386000000000003
1686018388.96362,-0.12,0.69,0.73,-6.83,-8.78,-24.08,-0.085,0.6459999999999999,0.6950000000000001,13.741999999999999,16.175999999999995,12.829000000000002
1686018389.0328083,-0.08,0.7,0.76,15.8,4.03,-21.58,-0.09,0.5940000000000001,0.6669999999999998,-3.4170000000000003,-2.6419999999999995,-7.293999999999999
1686018389.5228643,-0.13,0.61,0.66,10.84,0.47,7.07,-0.13199999999999998,0.611,0.681,-0.9519999999999996,-2.658,6.8069999999999995
1686018389.5477738,-0.1,0.64,0.67,10.65,3.31,6.48,-0.13300000000000003,0.611,0.67,1.465,-0.9739999999999999,7.199
1686018389.5707362,-0.12,0.67,0.67,10.0,-2.33,2.96,-0.133,0.6159999999999999,0.668,1.519,-1.0669999999999997,7.9449999999999985
1686018389.5928333,-0.09,0.72,0.73,11.17,-3.32,9.1,-0.12700000000000003,0.6279999999999999,0.675,3.311,-1.6379999999999995,7.722999999999999
1686018389.6518803,-0.07,0.68,0.74,-1.47,0.38,4.99,-0.098,0.6559999999999999,0.6950000000000001,4.304,-1.7559999999999998,8.346
1686018389.6877322,-0.04,0.63,0.72,-2.92,-3.38,5.64,-0.081,0.666,0.708,4.026,-1.568,8.172
1686018389.8617558,-0.08,0.71,0.7,9.77,8.87,6.77,-0.08499999999999999,0.639,0.689,3.9519999999999995,2.31,6.381
1686018389.9316788,-0.18,0.69,0.62,16.68,0.78,-21.13,-0.10999999999999999,0.6540000000000001,0.6649999999999999,6.685,4.088000000000001,3.3760000000000003
1686018389.9677978,-0.05,0.73,0.71,17.92,-9.19,0.18,-0.10500000000000001,0.6789999999999999,0.67,8.769,3.5070000000000006,2.83
1686018389.99066,-0.1,0.66,0.65,5.65,-4.93,-11.94,-0.10100000000000002,0.6799999999999999,0.6679999999999999,9.056000000000001,2.742000000000001,1.7700000000000002
1686018390.0135944,-0.13,0.64,0.7,47.35,5.79,6.9,-0.099,0.6819999999999999,0.671,13.814000000000002,3.0680000000000005,1.609
1686018390.1527479,-0.02,0.75,0.52,56.74,3.13,15.71,-0.10400000000000001,0.7270000000000001,0.6140000000000001,34.833000000000006,-0.5009999999999999,8.431000000000001
1686018390.3517835,0.03,0.84,0.29,47.37,19.26,-5.19,0.013000000000000001,0.8130000000000001,0.399,75.295,11.789000000000001,16.997999999999998
1686018390.387701,-0.01,0.95,0.32,44.11,39.2,-12.98,0.01,0.853,0.365,74.703,16.247000000000003,12.968
1686018390.7827845,-0.09,0.96,0.07,3.59,-7.73,-8.59,-0.099,0.923,0.099,18.857999999999997,-1.935,-8.032
1686018390.8079176,-0.09,0.93,0.11,1.28,-5.76,-1.91,-0.10400000000000001,0.932,0.097,15.180000000000001,-2.7439999999999998,-6.116
1686018390.8307524,-0.11,0.94,0.08,-0.12,-1.7,1.56,-0.101,0.9289999999999999,0.09099999999999998,12.073,-4.683999999999999,-5.675999999999999
1686018390.853611,-0.1,0.95,0.09,-0.51,-0.59,0.6,-0.10399999999999998,0.9299999999999999,0.092,8.917,-7.984000000000002,-5.4639999999999995
1686018390.9929075,-0.1,0.92,0.1,-8.42,-0.09,-3.7,-0.09799999999999999,0.9259999999999999,0.09999999999999999,-0.556,-2.6849999999999996,-2.129
1686018391.062659,-0.11,0.91,0.1,-8.57,-2.56,-0.33,-0.10400000000000001,0.9120000000000001,0.09999999999999999,-4.112,-2.19,-1.8039999999999998
1686018391.0877118,-0.13,0.91,0.09,-4.68,1.32,2.57,-0.11000000000000001,0.9110000000000001,0.09899999999999999,-4.529,-1.9989999999999999,-1.607
1686018391.110765,-0.12,0.92,0.08,1.2,-2.81,0.23,-0.11200000000000002,0.9109999999999999,0.09599999999999999,-4.201,-1.9959999999999998,-1.5510000000000002
1686018391.1337295,-0.13,0.93,0.08,10.14,-7.08,-2.77,-0.11600000000000002,0.913,0.09399999999999999,-3.158,-2.4299999999999997,-1.7659999999999996
1686018391.202854,-0.12,0.94,0.09,21.76,-1.25,-1.19,-0.119,0.9239999999999998,0.09,2.0870000000000006,-2.731,-1.523
1686018391.2618716,-0.1,0.92,0.1,10.93,2.03,2.15,-0.11200000000000002,0.9279999999999999,0.09299999999999999,7.2509999999999994,-2.3069999999999995,-0.75
1686018391.3578603,-0.12,0.9,0.04,19.8,4.24,1.35,-0.10600000000000001,0.924,0.074,14.728,-0.37300000000000005,0.37400000000000017
1686018391.4979746,-0.1,0.94,0.02,10.9,0.09,-3.2,-0.10899999999999999,0.9179999999999998,0.03200000000000001,17.144,0.029000000000000015,0.199
1686018391.5207784,-0.1,0.95,0.02,3.8,0.89,1.38,-0.10799999999999998,0.9189999999999998,0.030000000000000006,16.838,0.09499999999999997,-0.13800000000000018
1686018391.5429342,-0.12,0.92,0.03,-2.57,-1.29,0.3,-0.10799999999999998,0.9209999999999999,0.029000000000000005,15.533000000000001,-0.07600000000000003,-0.33500000000000013
1686018391.5679047,-0.11,0.94,0.02,-11.46,0.44,-4.45,-0.10500000000000001,0.9279999999999999,0.024,12.907000000000002,-0.516,-1.04
1686018391.6378665,-0.09,0.95,0.03,-44.54,-1.91,-15.89,-0.094,0.9380000000000001,0.020999999999999998,-5.089999999999999,0.33099999999999985,-6.8629999999999995
1686018391.660804,-0.1,0.92,0.05,-55.08,-6.8,-13.73,-0.093,0.9369999999999999,0.023000000000000003,-12.905000000000001,-0.22300000000000014,-7.792
1686018391.682921,-0.09,0.95,0.08,-64.45,-3.17,-14.18,-0.092,0.9380000000000001,0.029000000000000005,-21.443,-0.054000000000000006,-8.992
1686018391.7079139,-0.12,0.94,0.1,-79.14,12.92,-14.09,-0.09199999999999998,0.9389999999999998,0.042,-31.002,1.388,-9.947
1686018391.730839,-0.2,0.94,0.24,-93.35,6.81,-16.0,-0.101,0.938,0.065,-41.427,2.0599999999999996,-11.227
1686018391.7537394,-0.15,0.95,0.22,-113.77,0.96,-19.5,-0.10499999999999998,0.9389999999999998,0.08499999999999999,-53.18399999999999,2.0669999999999997,-13.315000000000001
1686018391.7778676,-0.15,0.89,0.22,-118.77,9.34,-19.34,-0.124,0.9329999999999998,0.122,-64.804,3.13,-15.279000000000002
1686018391.800773,-0.18,0.88,0.34,-130.47,9.47,-21.58,-0.13199999999999998,0.9270000000000002,0.156,-76.705,4.0329999999999995,-16.992
1686018391.822944,-0.18,0.85,0.33,-139.28,7.61,-28.03,-0.141,0.917,0.186,-87.95599999999999,4.335,-17.980999999999998
1686018392.1279166,-0.12,0.2,0.89,-103.94,-14.99,-9.95,-0.172,0.41000000000000003,0.7949999999999999,-159.331,-58.41700000000001,-28.192
1686018392.1508195,-0.11,0.24,1.01,-91.88,-12.05,-11.59,-0.16599999999999998,0.36800000000000005,0.844,-151.06,-56.245000000000005,-25.400999999999996
1686018392.1736994,-0.1,0.16,0.96,-97.22,-25.92,-8.6,-0.14800000000000002,0.31800000000000006,0.8599999999999998,-142.39000000000004,-53.98,-21.947999999999997
1686018392.452895,-0.19,-0.25,1.08,-67.62,11.61,-13.14,-0.099,-0.10600000000000001,0.9950000000000001,-75.88300000000001,15.986,-9.507000000000001
1686018392.7578986,-0.06,-0.58,0.82,-66.98,-6.03,-10.99,-0.06400000000000002,-0.501,0.869,-67.446,-13.825,-11.745999999999999
1686018392.7808352,-0.04,-0.63,0.78,-59.16,-1.13,-6.62,-0.05500000000000001,-0.525,0.8620000000000001,-66.003,-11.997,-10.233999999999998
1686018392.8029056,-0.06,-0.63,0.74,-48.03,4.44,-4.11,-0.05500000000000001,-0.5449999999999999,0.8370000000000001,-63.48899999999999,-8.428,-9.694999999999999
1686018393.1779203,-0.02,-0.78,0.65,7.32,5.94,1.23,-0.013000000000000001,-0.7950000000000002,0.627,-28.984999999999996,-4.431,-3.069
1686018393.2009904,-0.01,-0.82,0.64,-6.03,1.92,-0.54,-0.012,-0.8009999999999999,0.625,-24.119999999999997,-3.9010000000000007,-2.967999999999999
1686018393.2237258,0.0,-0.82,0.64,-6.87,2.8,-1.04,-0.01,-0.805,0.623,-20.009999999999998,-3.8150000000000004,-2.7139999999999995
1686018393.3179052,0.01,-0.83,0.59,0.84,-0.86,0.86,-0.003,-0.817,0.616,-5.680999999999999,-1.105,-0.8079999999999998
1686018393.3408353,0.0,-0.81,0.58,3.37,1.67,1.59,-0.004,-0.8140000000000001,0.617,-2.637,-0.732,-0.21400000000000005
1686018393.363759,0.01,-0.83,0.56,11.92,5.68,1.95,-0.0009999999999999996,-0.817,0.611,-0.06500000000000003,0.7010000000000002,0.396
1686018393.3878946,-0.0,-0.83,0.55,34.48,21.38,5.44,0.003,-0.8240000000000001,0.5900000000000001,3.097,3.068,1.06
1686018393.4579523,-0.02,-0.74,0.56,107.05,36.68,18.41,-0.006,-0.807,0.567,27.862000000000002,8.133000000000001,5.185
1686018393.4808695,-0.03,-0.69,0.68,132.06,38.92,24.29,-0.01,-0.7939999999999999,0.576,41.476,12.052,7.640000000000001
1686018393.5037353,-0.08,-0.64,0.79,130.81,16.45,30.96,-0.019,-0.7749999999999999,0.596,55.062,14.023,10.690999999999999
1686018393.527922,-0.16,-0.6,0.81,123.67,21.02,33.16,-0.051000000000000004,-0.732,0.6460000000000001,67.922,16.557000000000002,13.915000000000001
1686018393.5508597,-0.08,-0.57,0.86,116.2,30.47,27.82,-0.06,-0.7050000000000001,0.679,79.458,19.689999999999998,16.610999999999997
1686018393.5737302,-0.13,-0.51,0.92,105.94,3.07,25.11,-0.073,-0.673,0.7160000000000001,89.715,19.830000000000002,18.963
1686018393.597909,-0.13,-0.46,0.92,98.32,-1.43,21.7,-0.09,-0.607,0.784,98.35499999999999,19.119,20.938
1686018393.620783,-0.12,-0.5,0.72,79.52,-13.26,8.27,-0.1,-0.581,0.799,102.859,15.655000000000001,21.221
1686018393.6437812,-0.04,-0.49,0.94,118.42,-0.83,16.66,-0.10200000000000001,-0.556,0.8370000000000001,108.626,14.026,21.933999999999997
1686018393.7829502,-0.2,-0.26,0.93,42.74,14.21,2.89,-0.11499999999999999,-0.37299999999999994,0.9289999999999999,74.65200000000002,3.0540000000000003,11.013
1686018393.9929554,-0.13,-0.21,0.94,18.89,-1.37,-17.94,-0.133,-0.186,0.9989999999999999,34.729,-2.027,5.470000000000001
1686018394.1579325,-0.06,-0.04,1.05,22.5,-97.85,1.43,-0.099,-0.10800000000000001,0.974,40.492000000000004,-16.182,2.5249999999999995
1686018394.1808608,-0.06,0.01,1.1,-18.72,-134.9,34.87,-0.092,-0.086,0.99,35.885000000000005,-30.843,5.961999999999999
1686018394.2036119,-0.06,0.01,1.09,-66.69,-196.47,37.38,-0.08900000000000001,-0.06600000000000002,1.002,26.443,-52.338,11.466999999999999
1686018394.2979283,0.36,-0.13,0.95,-12.26,-145.98,8.14,0.046,-0.068,1.0079999999999998,15.919000000000002,-106.954,20.342000000000002
1686018394.3208683,0.41,-0.09,0.93,-46.6,-183.23,29.46,0.10799999999999998,-0.07099999999999998,0.9889999999999999,4.925000000000001,-126.30999999999999,23.002000000000002
1686018394.343743,0.5,-0.14,0.94,-37.38,-182.51,29.55,0.16699999999999998,-0.08399999999999999,0.976,-9.216,-143.349,23.139000000000003
1686018394.3679228,0.43,-0.07,0.86,-37.7,-165.94,15.47,0.258,-0.09500000000000001,0.9339999999999998,-20.899,-153.154,23.003000000000004
1686018394.3909314,0.59,-0.1,0.96,-25.23,-123.68,-1.67,0.323,-0.10600000000000002,0.921,-25.672000000000004,-155.73700000000002,22.693000000000005
1686018394.4137468,0.6,-0.19,0.91,-7.23,-75.88,-17.28,0.37,-0.10800000000000001,0.93,-24.522999999999996,-149.83499999999998,17.478
1686018394.4489298,0.64,-0.16,0.85,-16.11,-75.4,11.38,0.469,-0.11500000000000002,0.924,-19.464999999999996,-137.728,14.878000000000004
1686018394.471902,0.66,-0.23,0.74,-15.31,-76.87,20.86,0.519,-0.133,0.8949999999999999,-15.449000000000002,-127.23600000000002,13.875
1686018394.762961,0.75,-0.16,0.77,1.64,10.75,-1.82,0.7369999999999999,-0.15999999999999998,0.774,-1.927,-28.231,6.522
1686018394.903071,0.74,-0.19,0.82,-9.82,33.95,-2.95,0.731,-0.16599999999999998,0.7779999999999999,1.86,1.0729999999999997,3.4099999999999993
1686018395.1829436,-0.04,-0.23,1.04,-24.6,134.83,-13.19,0.20599999999999996,-0.202,0.9629999999999999,-30.931000000000004,170.185,-42.373000000000005
1686018395.2079473,-0.0,-0.32,0.84,-6.0,122.54,-18.98,0.10899999999999999,-0.227,0.9530000000000001,-29.898000000000007,175.416,-43.463
1686018395.2308903,-0.01,-0.31,1.06,-0.32,79.28,12.2,0.048,-0.23500000000000001,0.9680000000000002,-25.796,165.526,-38.941
1686018395.2530031,-0.02,-0.32,1.02,-5.04,121.91,20.86,0.02100000000000001,-0.254,0.968,-21.505,155.952,-29.535000000000004
1686018395.2780416,-0.17,-0.26,0.99,13.61,198.06,7.46,-0.010999999999999992,-0.27599999999999997,0.975,-16.069,153.597,-23.485
1686018395.3008733,-0.25,-0.27,0.83,39.37,153.11,-0.09,-0.05600000000000001,-0.273,0.9700000000000001,-10.038999999999998,144.20299999999997,-21.699
1686018395.323141,-0.26,-0.26,0.88,42.15,118.45,22.24,-0.092,-0.2760000000000001,0.9510000000000002,-5.516,128.453,-15.529000000000002
1686018395.392906,-0.63,-0.3,0.97,55.86,205.4,-1.88,-0.23500000000000001,-0.238,0.9220000000000003,19.404000000000003,141.78900000000002,8.386
1686018395.4178586,-0.64,-0.12,0.77,37.86,153.4,5.22,-0.36,-0.2,0.869,25.65,143.64600000000002,10.227
1686018395.4408305,-0.58,-0.15,0.72,-0.05,97.16,2.59,-0.404,-0.191,0.842,26.244999999999997,141.10800000000003,12.384000000000002
1686018395.4637523,-0.6,-0.12,0.66,-1.2,79.98,-0.27,-0.44699999999999995,-0.177,0.8089999999999998,26.157,141.17800000000005,11.137
1686018395.6029823,-0.81,-0.14,0.47,-2.9,39.59,15.74,-0.6449999999999999,-0.156,0.615,18.577,113.83699999999999,6.5280000000000005
1686018395.7429056,-0.85,-0.14,0.43,-9.17,30.03,-9.19,-0.7939999999999999,-0.12800000000000003,0.516,-6.586999999999999,63.88199999999999,0.0870000000000001
1686018395.7788813,-0.74,-0.19,0.51,-10.92,6.87,-15.19,-0.821,-0.13,0.481,-9.659,55.18299999999999,-0.45000000000000034
1686018395.8488653,-0.78,-0.2,0.44,-6.11,5.04,-4.33,-0.812,-0.16699999999999998,0.429,-10.377,39.152,-1.9240000000000002
1686018395.8717904,-0.8,-0.19,0.42,-3.08,7.01,-4.05,-0.799,-0.178,0.438,-10.395,35.894000000000005,-3.903
1686018396.0589018,-0.82,-0.2,0.4,-1.47,-1.61,-4.63,-0.8200000000000001,-0.18199999999999997,0.417,-4.965,6.0379999999999985,-5.732
1686018396.0818884,-0.8,-0.2,0.43,-5.52,-11.07,-7.52,-0.8210000000000001,-0.184,0.4149999999999999,-4.6,1.9280000000000002,-5.565
1686018396.1289473,-0.78,-0.23,0.42,-9.28,-23.02,1.68,-0.8099999999999999,-0.191,0.42000000000000004,-4.436,-1.0610000000000004,-3.878000000000001
1686018396.1518886,-0.77,-0.23,0.44,-11.11,-45.49,2.87,-0.806,-0.195,0.42300000000000004,-5.179,-7.542,-2.396
1686018396.1990476,-0.78,-0.22,0.54,-38.39,-126.98,9.46,-0.796,-0.20400000000000001,0.445,-8.407,-20.744,-1.017
1686018396.2219265,-0.84,-0.2,0.54,-64.65,-214.11,9.17,-0.794,-0.207,0.45899999999999996,-14.563999999999998,-42.856,0.30500000000000027
1686018396.372955,-0.08,-0.3,1.01,-36.98,-251.28,31.77,-0.40599999999999997,-0.258,0.7590000000000001,-34.83,-210.288,25.804000000000002
1686018396.3978603,-0.13,-0.28,0.83,25.74,-94.72,-4.6,-0.267,-0.27199999999999996,0.826,-31.328000000000003,-217.458,25.176000000000002
1686018396.4208071,-0.02,-0.24,1.05,49.13,-58.32,-16.45,-0.21200000000000002,-0.266,0.885,-25.304000000000002,-218.74100000000004,23.244000000000003
1686018396.4437907,0.02,-0.19,1.08,30.47,-46.53,-4.14,-0.17,-0.25400000000000006,0.9369999999999999,-18.418000000000003,-210.69600000000005,21.884000000000004
1686018396.5129278,-0.06,-0.14,1.07,36.72,26.33,-7.61,-0.05500000000000001,-0.22400000000000003,1.016,7.9879999999999995,-127.90600000000002,10.931000000000004
1686018396.582915,-0.04,-0.21,0.96,0.72,-3.1,-3.52,-0.031999999999999994,-0.18299999999999997,1.03,15.148,-40.50500000000001,-3.8649999999999998
1686018396.652859,-0.02,-0.21,0.96,-5.41,-17.73,-5.1,-0.037000000000000005,-0.179,1.0030000000000001,10.543,-3.4120000000000004,-6.242999999999999
1686018396.677889,0.02,-0.2,0.99,-10.96,-43.52,3.8,-0.026000000000000002,-0.188,0.99,6.3999999999999995,-3.1110000000000007,-5.449
1686018396.7008574,0.02,-0.2,1.0,-27.91,-86.38,15.53,-0.018000000000000002,-0.19499999999999998,0.983,2.3739999999999997,-11.116999999999999,-3.147
1686018396.7229354,0.07,-0.22,0.97,-46.98,-146.86,29.05,-0.008000000000000002,-0.19899999999999998,0.9790000000000001,-5.3469999999999995,-27.665,0.7440000000000001
1686018396.7929358,0.33,-0.26,0.96,-64.59,-208.51,43.01,0.10700000000000001,-0.22599999999999998,0.9879999999999999,-30.737000000000002,-93.925,16.661
1686018396.8630474,0.52,-0.41,0.95,-90.32,-143.76,41.23,0.28500000000000003,-0.277,1.0079999999999998,-55.551,-142.581,31.042
1686018396.9330027,0.49,-0.5,0.67,28.98,59.97,-16.38,0.45099999999999996,-0.388,0.881,-57.226,-134.06199999999998,33.928000000000004
1686018397.003036,0.32,-0.45,0.72,64.84,216.71,-60.05,0.45600000000000007,-0.471,0.756,-16.781,-16.761999999999993,5.057
1686018397.1679864,-0.17,-0.05,1.24,19.83,116.38,13.56,0.177,-0.282,1.026,60.50600000000001,166.421,-19.233
1686018397.1908715,-0.2,-0.11,1.06,-2.75,54.23,3.7,0.126,-0.24699999999999994,1.058,53.648,154.88299999999998,-14.332000000000003
1686018397.2130456,-0.13,-0.11,1.06,-37.34,16.08,17.94,0.08100000000000002,-0.21300000000000002,1.092,42.18299999999999,134.25799999999998,-6.288000000000001
1686018397.248995,-0.21,-0.32,0.61,-26.87,41.64,-11.67,-0.03200000000000001,-0.16500000000000004,1.068,33.012,116.751,-1.4500000000000006
1686018397.3529446,-0.14,-0.35,0.67,48.44,9.46,25.76,-0.12000000000000002,-0.32,0.715,11.845999999999998,48.336,13.925999999999998
1686018397.4480247,-0.27,0.05,1.01,75.44,9.55,15.01,-0.157,-0.21400000000000002,0.7609999999999999,18.368000000000002,14.975,14.876
1686018397.4709346,-0.28,0.09,1.08,66.3,2.47,4.98,-0.184,-0.158,0.8089999999999999,25.273000000000003,9.799,15.004
1686018397.493054,-0.29,0.21,1.22,63.35,-2.41,6.36,-0.211,-0.094,0.8720000000000001,35.342,7.950000000000001,13.846000000000004
1686018397.5990465,-0.18,0.17,1.31,-79.91,4.06,-32.44,-0.326,0.27,1.3940000000000001,37.999,4.618,9.5
1686018397.62189,-0.11,0.03,1.06,-91.49,1.55,-33.1,-0.312,0.271,1.4010000000000002,26.178000000000008,3.9170000000000003,2.9580000000000006
1686018397.7030573,-0.09,-0.37,0.54,-74.53,-1.89,-16.45,-0.22199999999999998,0.094,1.189,-15.6,4.0649999999999995,-10.056000000000001
1686018397.7390425,-0.11,-0.51,0.45,-35.56,-6.17,-3.97,-0.15000000000000005,-0.10299999999999998,0.9289999999999999,-26.7,2.493,-11.954
1686018397.7618823,-0.1,-0.58,0.28,-16.47,-11.47,-0.87,-0.11599999999999999,-0.207,0.781,-34.977,1.0989999999999993,-12.539
1686018397.8430676,0.0,-0.42,0.45,63.59,-36.29,29.11,-0.07599999999999998,-0.44699999999999995,0.44300000000000006,-35.032999999999994,-10.504999999999999,-5.776999999999999
1686018397.9489899,-0.33,0.4,1.71,40.2,-21.89,23.11,-0.11200000000000002,-0.192,0.796,35.724000000000004,-18.333,16.311
1686018398.018839,-0.12,0.19,1.39,-24.6,10.38,-18.71,-0.164,0.13199999999999998,1.294,44.717999999999996,-18.339999999999996,16.751
1686018398.0418227,-0.1,0.16,1.3,-40.84,6.26,-16.71,-0.17400000000000002,0.18999999999999997,1.3790000000000002,42.28099999999999,-16.567,15.167000000000002
1686018398.2290552,-0.13,-0.38,0.59,-36.41,0.36,-2.57,-0.095,-0.16299999999999998,0.8870000000000001,-48.73199999999999,6.391,-11.322999999999997
1686018398.2519794,-0.15,-0.42,0.55,-23.52,-5.79,-3.14,-0.1,-0.221,0.8119999999999999,-51.528999999999996,7.662999999999999,-11.905999999999997
1686018398.403122,-0.06,-0.05,1.05,87.17,-3.37,16.62,-0.05900000000000001,-0.359,0.6459999999999999,1.5730000000000017,-2.283,2.7359999999999998
1686018398.4730139,-0.16,0.13,1.34,31.16,-13.52,9.71,-0.082,-0.13099999999999995,0.968,36.505,-9.885,9.471
1686018398.5090153,-0.11,0.09,1.27,10.45,-7.08,2.69,-0.099,-0.017,1.125,41.191,-10.629,9.997
1686018398.5319455,-0.12,0.07,1.21,1.31,-7.73,-0.54,-0.10800000000000001,0.027000000000000003,1.1830000000000003,43.674,-10.823,10.257000000000001
1686018398.6130435,-0.06,-0.08,0.98,-11.52,-5.98,-4.65,-0.10700000000000001,0.042999999999999976,1.202,37.602,-9.062000000000001,7.820999999999998
1686018398.8930697,-0.08,-0.07,1.03,-4.56,-0.77,-2.51,-0.071,-0.07800000000000003,1.0099999999999998,-3.253,-0.12899999999999995,-1.2550000000000001
1686018399.0379448,-0.07,-0.06,1.07,3.82,4.89,-0.12,-0.06100000000000001,-0.1,0.991,-4.371999999999999,-0.14200000000000007,-1.2149999999999999
1686018399.0609117,-0.1,0.07,1.23,3.74,10.08,-0.14,-0.063,-0.086,1.0110000000000001,-3.919999999999999,1.012,-1.0859999999999999
1686018399.2129507,-0.0,-0.48,0.43,-20.17,-4.66,-4.53,-0.07100000000000001,-0.153,0.95,-19.052,3.45,-5.6850000000000005
1686018399.2830553,-0.02,-0.28,0.66,55.14,-6.3,15.35,-0.029000000000000005,-0.32199999999999995,0.655,-8.760000000000002,0.10400000000000001,-1.7559999999999996
1686018399.3889241,-0.09,0.11,1.45,-4.08,1.59,-2.38,-0.06599999999999999,-0.16899999999999993,0.906,14.080999999999998,-3.982,4.191
1686018399.4118648,-0.07,0.06,1.35,-16.12,8.32,-12.65,-0.073,-0.11499999999999996,0.998,17.360999999999997,-3.6809999999999996,4.045
1686018399.4929674,0.01,-0.21,0.9,-46.32,4.3,-5.94,-0.06499999999999999,-0.013999999999999995,1.2109999999999999,8.846999999999998,-1.389,2.2699999999999996
1686018399.5630407,-0.09,-0.34,0.62,-8.15,5.26,4.59,-0.034999999999999996,-0.16,0.9720000000000001,-12.732000000000001,2.936,-1.267
1686018399.6329591,-0.08,-0.31,0.64,33.13,-14.59,13.07,-0.05499999999999999,-0.29900000000000004,0.7000000000000001,-16.407,0.20899999999999963,0.9139999999999994
1686018399.703037,-0.12,0.13,1.43,43.23,-10.51,0.12,-0.089,-0.20800000000000005,0.82,10.145,-3.364,5.132999999999999
1686018399.7730114,-0.05,0.03,1.35,-27.74,-7.83,-14.92,-0.08600000000000001,-0.02299999999999999,1.159,16.07,-7.275,4.074
1686018399.8429718,0.02,-0.17,0.91,-62.68,-5.76,-9.91,-0.06000000000000001,0.030000000000000006,1.2870000000000001,8.247999999999996,-9.783,1.2159999999999993
1686018400.1831079,-0.18,-0.44,0.88,-21.82,18.59,-9.47,0.023000000000000003,-0.36700000000000005,1.137,-54.46600000000001,13.911000000000005,-10.537
1686018400.2889354,-0.25,-0.52,0.39,46.93,43.92,14.23,-0.064,-0.522,0.67,-40.6,37.220000000000006,-5.9590000000000005
1686018400.3118722,-0.23,-0.44,0.86,57.26,20.21,15.1,-0.091,-0.5240000000000001,0.636,-36.644999999999996,45.608999999999995,-3.9919999999999995
1686018400.3589084,-0.39,-0.34,1.5,2.56,-3.61,20.45,-0.164,-0.4920000000000001,0.7209999999999999,-40.625,49.958999999999996,-2.0490000000000004
1686018400.381845,-0.41,-0.47,1.36,-27.14,-10.86,7.25,-0.187,-0.495,0.7689999999999999,-29.326999999999998,37.443,-0.08300000000000089
1686018400.4289346,-0.33,-0.38,1.13,-44.68,13.4,-0.83,-0.266,-0.475,0.881,-3.8660000000000005,17.822,5.455
1686018400.4518826,-0.25,-0.49,0.86,-50.68,15.97,-9.7,-0.279,-0.47300000000000003,0.9269999999999999,-9.181000000000001,25.240000000000002,3.522999999999999
1686018400.5689633,-0.12,-0.61,0.15,-3.04,-55.1,10.33,-0.22999999999999998,-0.522,0.7900000000000001,-12.703,2.4170000000000007,0.2450000000000001
1686018400.778953,-0.03,-0.55,0.72,-62.18,7.97,-17.29,-0.22099999999999995,-0.454,1.018,4.422000000000001,-21.884000000000004,-0.7329999999999999
1686018400.801947,-0.03,-0.58,0.53,-47.16,10.21,-11.4,-0.20899999999999994,-0.453,1.052,2.1390000000000042,-19.134,-0.3210000000000017
1686018401.6189818,-0.15,-0.33,1.31,75.07,-12.3,18.72,-0.06799999999999999,-0.559,0.508,-3.877000000000001,-1.8069999999999997,-3.155000000000001
1686018401.641931,-0.21,-0.27,1.58,55.67,-12.96,14.11,-0.091,-0.524,0.6300000000000001,-3.6600000000000037,-2.6799999999999993,-1.8970000000000014
1686018401.7591481,-0.03,-0.5,0.71,-67.38,3.5,-8.47,-0.12,-0.39299999999999996,1.1330000000000002,-4.139000000000001,-5.069000000000001,1.02
1686018401.829114,-0.09,-0.6,0.28,-13.53,-6.15,4.53,-0.097,-0.43499999999999994,0.9480000000000001,-0.6890000000000006,-8.354000000000001,3.8669999999999995
1686018402.0391152,-0.1,-0.4,1.28,-26.71,17.92,-11.13,-0.13100000000000003,-0.45600000000000007,0.9309999999999998,14.588999999999999,-1.9809999999999994,1.3879999999999997
1686018402.0620346,-0.07,-0.45,1.09,-47.26,13.5,-11.74,-0.12900000000000003,-0.442,1.012,15.531,-1.254,0.9460000000000003
1686018402.389096,-0.07,-0.43,1.19,29.82,-18.63,0.96,-0.10699999999999998,-0.504,0.7619999999999999,11.584999999999999,-6.82,1.4
1686018402.589164,0.13,-0.16,1.05,52.8,10.81,-31.68,0.03400000000000001,-0.398,0.985,52.373000000000005,-35.543,0.882
1686018402.6120172,0.04,-0.02,1.17,11.64,176.84,-112.48,0.044,-0.35900000000000004,0.9860000000000001,48.978,-15.945000000000002,-11.031
1686018402.7631915,-0.01,-0.15,1.07,10.47,8.69,28.99,0.003,-0.181,0.9960000000000002,48.453,3.476999999999999,-1.9149999999999996
1686018403.0790718,-0.0,-0.19,0.98,10.32,-24.57,-1.26,-0.10800000000000001,-0.11400000000000002,0.9890000000000001,11.778,1.293,-8.042
1686018403.102088,-0.02,-0.14,1.0,15.79,-40.99,5.32,-0.1,-0.11499999999999999,0.9890000000000001,11.088,-8.834999999999999,-4.575
1686018403.2532547,0.01,0.03,0.98,49.76,-31.32,4.08,0.028999999999999998,-0.06299999999999999,0.991,30.078999999999997,-34.701,2.5060000000000002
1686018403.323148,0.12,0.1,1.02,13.55,11.01,-14.32,0.061,0.045,0.998,37.997,-34.49,5.879000000000001
1686018403.3931782,0.31,-0.1,1.11,-3.71,1.73,-14.92,0.098,0.087,1.018,35.19799999999999,-25.793,3.257999999999999
1686018403.4992673,0.1,0.26,0.95,53.11,-8.35,16.24,0.15199999999999997,0.124,1.023,41.857,-14.873999999999999,2.8810000000000002
1686018403.5220664,0.15,0.19,0.9,71.71,-15.97,4.09,0.15499999999999997,0.133,1.011,43.431,-12.925,2.5639999999999996
1686018404.2931087,0.08,0.83,0.47,-1.92,-0.14,-4.89,0.08099999999999999,0.8319999999999999,0.4659999999999999,9.245999999999999,0.306,-4.2090000000000005
1686018404.3291578,0.08,0.82,0.48,-3.17,-0.83,0.78,0.07999999999999999,0.8310000000000001,0.465,6.4399999999999995,0.5960000000000001,-2.776
1686018404.3521202,0.07,0.8,0.48,-4.8,-0.59,0.75,0.08,0.8270000000000002,0.46799999999999997,3.596,0.752,-1.6989999999999998
1686018404.469305,0.07,0.84,0.48,1.46,-3.4,-0.54,0.078,0.82,0.47299999999999986,-1.2129999999999996,-0.915,-1.043
1686018404.4920707,0.07,0.84,0.48,5.44,-0.54,-0.15,0.07700000000000003,0.8210000000000001,0.47400000000000003,-1.3319999999999996,-0.9989999999999999,-1.073
1686018404.5730605,0.07,0.83,0.46,18.33,3.16,-3.5,0.076,0.8309999999999998,0.475,2.786,-0.22400000000000028,-0.834
1686018404.7490726,0.06,0.85,0.43,-4.23,-2.38,-1.68,0.083,0.844,0.453,9.568999999999999,0.8210000000000001,-2.738
1686018404.7720566,0.06,0.86,0.42,-3.17,-2.96,-0.81,0.081,0.845,0.449,9.106,0.8649999999999999,-2.7649999999999997
1686018404.88909,0.07,0.84,0.46,2.96,0.44,-3.37,0.06300000000000001,0.843,0.43900000000000006,6.055999999999999,0.56,-2.687
1686018405.0289412,0.06,0.85,0.43,-0.83,-3.05,3.08,0.06600000000000002,0.8389999999999999,0.441,-0.502,-0.39699999999999985,-0.4979999999999999
1686018405.0990117,0.07,0.85,0.44,-1.95,-0.99,-1.28,0.06700000000000002,0.8469999999999999,0.438,-0.48599999999999993,-0.453,-0.083
1686018405.1691394,0.08,0.85,0.46,-6.18,-1.82,0.33,0.06899999999999999,0.8499999999999999,0.44000000000000006,-0.893,-0.546,-0.26300000000000007
1686018405.1921299,0.07,0.84,0.46,-7.73,-1.49,1.25,0.071,0.8489999999999999,0.44299999999999995,-1.6810000000000003,-0.797,0.03300000000000001
1686018405.4291298,0.09,0.83,0.49,-7.79,-4.26,-1.83,0.075,0.827,0.471,-7.425000000000002,-3.0150000000000006,0.33099999999999996
1686018405.4520934,0.09,0.83,0.49,-10.8,-3.02,-0.03,0.07699999999999999,0.827,0.47400000000000003,-8.31,-3.218000000000001,0.45599999999999996
1686018405.4992647,0.09,0.84,0.51,-21.65,-5.61,2.81,0.08099999999999999,0.8280000000000001,0.483,-10.231,-3.6260000000000003,0.9199999999999999
1686018405.5221217,0.09,0.82,0.52,-29.4,-6.71,4.0,0.08199999999999999,0.828,0.4880000000000001,-12.553,-4.115,1.287
1686018405.7092278,0.13,0.65,0.66,-76.2,18.74,-14.99,0.027000000000000003,0.739,0.6080000000000001,-51.349000000000004,0.2839999999999989,0.06500000000000003
1686018405.7321565,0.1,0.6,0.67,-71.73,17.58,-8.71,0.02799999999999999,0.717,0.623,-57.742999999999995,2.467999999999999,-0.6230000000000002
1686018405.7792437,-0.04,0.5,0.73,-62.92,4.86,-5.04,0.011000000000000001,0.6599999999999999,0.6689999999999999,-62.955,3.255999999999999,-1.124
1686018405.849159,0.02,0.5,0.85,-91.82,26.17,-4.05,0.04000000000000001,0.592,0.735,-73.16299999999998,8.09,-2.9440000000000004
1686018405.872112,0.18,0.53,0.83,-99.83,34.69,-9.71,0.06000000000000001,0.5730000000000001,0.756,-78.587,12.597999999999999,-4.441000000000001
1686018405.919279,0.03,0.48,0.88,-89.98,27.17,29.43,0.06300000000000001,0.532,0.8030000000000002,-81.62700000000001,16.413999999999998,-2.1489999999999996
1686018405.9421113,-0.0,0.35,0.85,-57.41,12.47,32.56,0.053000000000000005,0.507,0.8210000000000001,-80.34100000000001,18.355999999999998,0.38400000000000034
1686018406.0592287,-0.07,0.52,1.13,-63.31,25.08,-43.94,0.074,0.41899999999999993,0.9099999999999999,-61.702,10.715,-1.9169999999999994
1686018406.0821013,-0.03,0.29,1.07,-107.98,5.19,-34.96,0.06899999999999999,0.398,0.932,-66.208,10.748000000000001,-4.909
1686018406.1291897,0.05,0.17,1.08,-65.13,-22.47,48.93,0.048,0.327,0.969,-66.59,7.515999999999998,0.7180000000000006
1686018406.152131,0.07,0.2,0.92,-80.92,-5.05,43.55,0.052000000000000005,0.29900000000000004,0.9730000000000001,-65.49999999999999,4.394,5.478
1686018406.339243,-0.18,0.04,1.21,-92.18,71.98,-18.18,0.025000000000000005,0.15100000000000002,0.9739999999999999,-54.056000000000004,12.347,-1.5510000000000008
1686018406.3621483,0.11,0.05,1.2,-49.52,22.6,-33.74,0.031,0.13899999999999998,0.986,-55.782000000000004,16.175,-2.375000000000001
1686018406.5491476,0.03,0.01,1.0,-25.05,-16.71,-13.5,-0.14800000000000002,0.089,1.044,-35.716,10.188000000000002,-10.870999999999999
1686018406.5721054,-0.02,-0.09,0.94,-25.71,-4.75,-10.02,-0.132,0.076,1.017,-35.14600000000001,8.991000000000005,-12.924000000000001
1686018406.6892052,0.05,-0.12,0.98,-12.36,-4.63,11.5,-0.024999999999999994,-0.048,0.9670000000000002,-19.048000000000002,-10.565999999999999,-5.871999999999998
1686018406.7121005,-0.03,-0.1,1.0,-12.56,-3.56,13.94,-0.003999999999999998,-0.06999999999999999,0.969,-19.549,-11.409,-4.208999999999999
1686018406.7592022,-0.0,-0.05,1.07,-5.07,-1.91,3.2,0.018999999999999996,-0.093,0.9879999999999999,-17.829,-8.986,-3.5119999999999996
1686018406.7821674,-0.03,-0.07,1.06,-10.0,-0.23,4.36,0.013000000000000001,-0.101,0.994,-15.751999999999999,-5.245,-2.386
1686018407.0191126,-0.07,-0.24,0.75,-2.15,1.31,-1.58,-0.047,-0.123,0.95,-11.632,3.8120000000000003,3.6060000000000008
1686018407.0420637,-0.04,-0.26,0.76,8.65,1.77,0.53,-0.048,-0.143,0.9200000000000002,-9.511,4.345000000000001,2.2649999999999997
1686018407.0891538,-0.04,-0.21,0.83,23.94,-5.94,11.34,-0.048,-0.179,0.868,-6.609999999999999,3.942000000000001,3.079
1686018407.112082,-0.05,-0.16,0.93,32.08,-2.33,7.34,-0.05,-0.187,0.858,-2.4019999999999997,3.7320000000000015,3.377
1686018407.1591544,-0.03,-0.02,1.13,23.22,-6.09,5.38,-0.047,-0.173,0.8800000000000001,0.6779999999999987,2.979000000000001,3.283
1686018407.2291257,-0.02,-0.0,1.09,9.47,1.79,2.57,-0.027000000000000003,-0.10400000000000001,0.994,5.1659999999999995,0.4109999999999997,3.886
1686018407.2520893,-0.03,-0.0,1.09,7.82,0.32,5.82,-0.026000000000000002,-0.078,1.0270000000000001,7.831999999999999,-0.18900000000000017,4.175
1686018407.299151,-0.06,-0.03,1.02,-1.5,2.08,0.27,-0.033,-0.03500000000000001,1.075,9.479,-0.8469999999999998,4.077
1686018407.322022,-0.06,-0.02,1.05,1.41,5.74,-0.59,-0.034,-0.020999999999999998,1.0870000000000002,11.285,-1.3890000000000002,3.9339999999999997
1686018407.369155,-0.07,0.01,1.1,-4.74,5.19,-0.18,-0.040999999999999995,-0.013000000000000001,1.085,11.026,-1.001,4.074
1686018407.3920426,-0.09,0.04,1.14,-5.52,10.62,-5.77,-0.048,-0.007000000000000001,1.084,9.609,-0.11599999999999984,3.444
1686018407.439268,-0.06,-0.03,1.11,-22.09,12.06,-12.72,-0.05799999999999998,-0.0029999999999999988,1.089,5.006,1.6839999999999997,1.0379999999999998
1686018407.4621055,-0.05,-0.07,1.03,-27.47,11.29,-11.25,-0.06100000000000001,-0.009999999999999998,1.0829999999999997,-0.9490000000000005,3.0460000000000003,-0.821
1686018407.5792139,-0.14,-0.07,1.08,-7.62,13.46,-5.2,-0.06599999999999999,-0.06799999999999999,1.0290000000000001,-12.264,9.364,-6.02
1686018407.6021059,-0.13,-0.07,1.08,-14.0,11.94,-9.89,-0.072,-0.076,1.027,-13.514,10.35,-7.035999999999999
1686018407.6492255,-0.07,-0.2,0.93,-18.26,8.95,-11.05,-0.072,-0.11500000000000002,0.991,-15.481,10.671,-8.082
1686018407.672079,-0.09,-0.19,0.92,-16.2,9.85,-6.77,-0.07499999999999998,-0.131,0.9720000000000001,-16.627,11.136999999999999,-8.741
1686018407.8701706,-0.09,-0.24,0.91,-15.04,4.95,-13.41,-0.09999999999999999,-0.186,0.95,-9.311999999999998,7.367,-8.423
1686018407.9291728,-0.11,-0.22,0.96,-8.36,7.67,-4.57,-0.098,-0.2,0.9629999999999999,-7.422,6.138000000000001,-7.481
1686018407.9521017,-0.09,-0.25,0.91,-6.69,9.64,-8.05,-0.097,-0.21000000000000002,0.954,-6.787000000000001,5.934,-7.302999999999999
1686018408.0801241,-0.13,-0.24,0.93,-7.31,4.17,-4.08,-0.10600000000000001,-0.23099999999999996,0.942,-8.077,5.308999999999999,-5.259000000000001
1686018408.103051,-0.12,-0.25,0.92,-6.0,3.11,-3.64,-0.11600000000000002,-0.22799999999999998,0.9470000000000001,-7.930999999999999,5.118,-4.758000000000001
1686018408.1500242,-0.12,-0.27,0.92,-5.16,-0.68,-3.43,-0.12600000000000003,-0.23700000000000002,0.9410000000000001,-6.752000000000001,4.713,-3.7120000000000006
1686018408.2902079,-0.13,-0.23,0.96,0.89,-1.88,0.05,-0.12399999999999997,-0.24899999999999997,0.937,-3.503999999999999,1.8550000000000009,-2.8600000000000003
1686018408.313105,-0.14,-0.22,0.97,0.02,-2.35,0.83,-0.12600000000000003,-0.246,0.9410000000000002,-2.6359999999999997,1.0859999999999999,-2.1630000000000007
1686018408.4301252,-0.13,-0.22,0.98,-0.66,0.38,-0.11,-0.127,-0.225,0.9730000000000002,0.425,-0.168,-0.6140000000000001
1686018408.5701497,-0.12,-0.25,0.91,6.45,-2.12,3.67,-0.119,-0.24100000000000002,0.945,1.008,-0.66,0.728
1686018409.0492177,-0.12,0.01,1.08,23.13,-1.1,10.39,-0.10800000000000001,-0.126,0.9390000000000001,20.714999999999996,-13.122,10.633
1686018409.0721378,-0.14,0.01,1.07,14.15,-3.25,10.06,-0.10400000000000001,-0.10700000000000001,0.959,21.106,-12.906,10.792
1686018409.1193748,-0.04,0.02,1.12,8.95,-0.11,-13.41,-0.09,-0.060999999999999985,1.002,21.125999999999998,-11.84,9.001000000000001
1686018409.1421916,0.0,-0.01,1.12,0.57,-6.51,-2.65,-0.076,-0.044,1.025,19.985,-11.323,8.471
1686018409.2592533,0.07,-0.18,1.03,-14.99,-7.83,-10.11,-0.053000000000000005,-0.043,1.075,5.647999999999998,-0.5829999999999996,-3.711
1686018409.2821696,0.03,-0.2,1.17,-19.17,41.1,-12.57,-0.038,-0.064,1.084,0.5939999999999998,5.375000000000001,-6.606999999999999
1686018409.539287,-0.11,-0.33,0.9,-56.38,26.99,-21.85,-0.04,-0.13799999999999998,0.985,-14.312000000000001,6.545999999999998,-12.549000000000001
1686018409.5622177,-0.08,-0.34,0.97,-17.82,-5.29,21.7,-0.046,-0.156,0.984,-14.176999999999998,1.906999999999999,-9.121999999999998
1686018409.6793184,0.21,-1.0,1.04,28.8,80.69,-36.48,-0.022,-0.231,1.0010000000000001,-24.653999999999996,4.551999999999999,-8.068999999999999
1686018409.702187,-0.08,-0.39,0.98,58.42,-1.97,31.68,-0.014000000000000002,-0.262,1.0080000000000002,-17.877999999999997,2.6689999999999983,-3.279999999999999
1686018409.8193045,-0.0,-0.18,0.87,84.12,18.18,109.14,-0.036000000000000004,-0.34900000000000003,0.962,-1.8709999999999951,-18.564,24.687
1686018409.842193,-0.16,-0.19,0.89,74.65,44.54,99.64,-0.048,-0.36600000000000005,0.96,11.232000000000003,-16.809,36.836
1686018410.1802337,0.0,-0.03,1.1,30.21,5.31,-63.35,-0.046,-0.161,0.952,16.592,-8.068000000000001,-30.549
1686018410.2031336,0.17,0.11,1.24,37.55,1.95,-18.29,-0.032999999999999995,-0.144,0.9610000000000001,19.287,-9.959,-36.366
1686018410.3793216,0.02,-0.06,0.97,10.09,2.63,-15.94,0.022000000000000002,-0.06400000000000002,1.0710000000000002,22.017000000000003,1.0079999999999998,-31.451
1686018410.4022305,-0.02,-0.04,1.06,15.74,7.85,-12.57,0.020000000000000004,-0.06500000000000002,1.0670000000000002,21.949,4.536,-24.369999999999997
1686018410.6594758,0.12,-0.13,1.13,-196.14,16.26,-13.1,-0.020000000000000007,0.031,1.36,-55.17100000000001,2.6090000000000004,-10.197000000000001
1686018410.682145,0.08,-0.29,0.83,-208.95,20.9,-2.99,-0.008000000000000004,0.007000000000000001,1.338,-77.64000000000001,3.914,-9.239
1686018410.799167,-0.14,-0.49,0.47,-212.08,17.86,22.99,0.015999999999999997,-0.217,0.9400000000000001,-140.828,11.347,-6.046999999999999
1686018410.8220932,0.06,-0.7,0.2,-182.09,-6.42,35.26,0.019,-0.29800000000000004,0.8019999999999999,-158.33599999999998,11.309999999999999,-1.8040000000000014
1686018410.8690856,-0.07,-0.74,0.41,-184.98,11.1,45.47,0.01,-0.433,0.601,-174.204,12.45,4.271
1686018410.892239,-0.02,-0.83,0.11,-168.99,-2.03,56.51,-0.004000000000000002,-0.503,0.4990000000000001,-180.98999999999998,10.736999999999998,11.993
1686018411.1602726,-0.31,-0.95,-0.15,0.06,-11.76,0.53,-0.30700000000000005,-0.9739999999999999,-0.06,-60.184000000000005,5.138,23.673
1686018411.2303073,-0.27,-0.9,-0.25,21.61,10.47,0.51,-0.30999999999999994,-0.9600000000000002,-0.145,-26.807,5.282,12.928999999999998
1686018411.253267,-0.32,-0.92,-0.22,33.61,9.65,-2.2,-0.31399999999999995,-0.9550000000000001,-0.16499999999999998,-15.015999999999996,3.447,9.802
1686018411.3003318,-0.23,-0.89,-0.06,64.48,-0.2,-10.18,-0.30100000000000005,-0.9230000000000003,-0.164,9.468,3.7909999999999995,3.1209999999999996
1686018411.3232949,-0.26,-0.92,-0.05,67.97,6.29,-7.01,-0.28600000000000003,-0.916,-0.15500000000000003,20.516,4.081999999999999,0.5639999999999998
1686018411.619236,-0.3,-0.46,0.93,151.53,-20.51,-7.13,-0.169,-0.7100000000000001,0.476,126.52099999999999,-17.899,-18.907
1686018411.642203,-0.17,-0.56,0.77,136.75,-33.94,-11.32,-0.167,-0.675,0.5359999999999999,131.92999999999998,-20.953,-19.174
1686018413.159505,0.04,0.03,1.25,-79.04,6.17,-2.39,0.015,-0.007999999999999998,1.127,-12.823000000000002,1.234,-1.661
1686018413.1822155,0.05,0.0,1.35,-88.57,5.8,2.02,0.02,-0.002999999999999997,1.162,-21.669,1.262,-1.467
1686018413.219143,0.04,-0.03,1.33,-148.95,27.86,-8.08,0.026000000000000002,0.0030000000000000005,1.234,-36.523,3.8369999999999997,-2.4579999999999997
1686018413.2421498,0.04,-0.11,1.24,-165.58,34.29,-4.35,0.031,-0.001999999999999999,1.256,-53.174,7.271000000000001,-2.995
1686018413.930216,-0.05,-0.8,-0.64,15.88,3.14,8.53,-0.15799999999999997,-0.905,-0.45999999999999996,-49.723,16.928,8.091
1686018414.000251,-0.21,-0.9,-0.49,71.5,-6.33,3.07,-0.151,-0.8690000000000001,-0.5710000000000001,-8.412999999999993,10.751000000000001,6.173
1686018414.023283,-0.18,-0.87,-0.38,80.0,-10.51,3.16,-0.159,-0.8670000000000002,-0.56,7.178000000000003,5.995000000000001,5.758
1686018414.1993446,-0.16,-0.83,0.16,163.01,-27.92,-7.55,-0.18799999999999997,-0.875,-0.18400000000000005,101.845,-14.202999999999998,1.7399999999999998
1686018414.2223227,-0.15,-0.84,0.29,172.71,-32.26,-1.86,-0.185,-0.8720000000000001,-0.11700000000000002,116.44799999999998,-18.547999999999995,0.42300000000000004
1686018416.400446,-0.08,0.57,0.77,35.29,-39.28,5.89,-0.028999999999999998,0.47300000000000003,0.851,81.311,18.798,1.191
1686018416.4233801,-0.04,0.55,0.79,31.95,-27.92,8.78,-0.04,0.501,0.8280000000000001,80.56300000000002,16.707,1.843
1686018418.1304162,0.04,0.88,0.39,-0.39,0.05,0.65,0.034,0.86,0.397,1.8230000000000004,-0.6090000000000001,0.41800000000000004
1686018418.2703824,0.04,0.85,0.4,2.72,1.01,-0.32,0.036,0.865,0.39699999999999996,1.0870000000000002,0.577,-0.03
1686018418.2933779,0.03,0.86,0.4,1.89,0.02,0.2,0.036,0.865,0.39699999999999996,0.998,0.5589999999999999,-0.04599999999999999
1686018418.6204824,0.04,0.86,0.39,1.76,0.56,-0.38,0.032999999999999995,0.8640000000000001,0.38900000000000007,1.042,0.244,0.172
1686018418.6434772,0.02,0.86,0.39,1.77,1.34,-0.33,0.032,0.8630000000000001,0.38900000000000007,1.034,0.41100000000000003,0.12199999999999993
1686018418.9005046,0.01,0.86,0.46,-66.69,-2.92,-3.49,0.020999999999999998,0.866,0.406,-16.380000000000003,0.48,-0.502
1686018418.9234252,0.02,0.86,0.49,-81.94,-12.92,-6.42,0.019999999999999997,0.866,0.41600000000000004,-24.473,-0.9219999999999999,-1.17
1686018418.9704425,0.01,0.81,0.54,-126.89,-19.04,-23.95,0.015000000000000003,0.8530000000000001,0.462,-47.041999999999994,-4.364,-4.545999999999999
1686018418.9933915,-0.0,0.81,0.62,-159.67,-15.53,-25.64,0.013000000000000001,0.8470000000000001,0.484,-62.726,-5.974,-7.116
1686018419.1104639,0.05,0.33,0.85,-159.77,-13.88,-18.21,-0.0020000000000000005,0.638,0.6659999999999999,-168.608,-15.697999999999999,-18.325
1686018419.390476,-0.08,0.17,0.99,-4.86,5.7,-7.82,-0.024000000000000004,0.18,0.99,-26.85,15.387,-0.7300000000000002
1686018419.4134383,-0.06,0.17,0.99,-5.17,-4.11,-3.8,-0.039,0.17999999999999997,0.994,-16.881,13.880999999999995,-0.06799999999999988
1686018419.530457,-0.08,0.21,1.24,-80.81,30.69,-16.38,-0.07399999999999998,0.187,1.061,-22.492,6.274000000000001,-8.053
1686018419.5534277,-0.11,0.19,1.11,-76.8,14.35,-16.66,-0.07899999999999999,0.189,1.075,-29.458000000000006,6.494999999999999,-10.266
1686018419.740502,-0.04,-0.27,0.86,-223.1,36.27,-16.86,-0.07,0.05299999999999999,1.2,-138.116,19.816,-12.829000000000002
1686018419.8804934,-0.17,-0.71,0.34,-208.74,56.39,-6.56,-0.08,-0.393,0.7579999999999999,-205.93800000000002,28.366999999999997,-13.991
1686018420.0805254,-0.2,-0.96,-0.04,-116.74,-5.82,9.26,-0.137,-0.8440000000000001,0.157,-166.46599999999998,18.433,6.449
1686018420.1033568,-0.15,-0.9,-0.04,-112.65,-3.04,5.94,-0.13499999999999998,-0.8629999999999999,0.11699999999999999,-155.15699999999998,12.681000000000001,8.622000000000002
1686018420.1504836,-0.23,-0.98,-0.18,-108.69,3.94,7.83,-0.16499999999999998,-0.9200000000000002,-0.038,-145.152,7.435999999999997,10.061000000000002
1686018420.1734502,-0.14,-0.94,-0.26,-98.77,-11.25,7.97,-0.17099999999999999,-0.9259999999999999,-0.071,-137.21200000000002,2.310999999999999,11.399000000000001
1686018420.780544,-0.28,-0.93,0.08,137.95,-43.4,-5.71,-0.26799999999999996,-0.906,-0.14799999999999996,80.55,-15.050999999999998,2.1830000000000003
1686018420.8033273,-0.25,-0.94,0.07,151.16,-44.54,-8.86,-0.27599999999999997,-0.9119999999999999,-0.10599999999999998,92.834,-19.307,0.9260000000000002
1686018420.8505065,-0.24,-0.9,0.28,160.2,-46.89,-8.03,-0.25900000000000006,-0.908,0.065,118.227,-26.574,-1.784
1686018420.8735197,-0.34,-0.82,0.47,179.34,-67.07,-12.93,-0.263,-0.898,0.139,131.47699999999998,-32.672,-3.621
1686018421.0603201,-0.02,-0.5,0.96,100.81,-36.09,-12.21,-0.10000000000000002,-0.585,0.8190000000000002,156.219,-38.201,-16.098999999999997
1686018421.0833123,0.04,-0.54,0.8,99.13,-29.14,-8.92,-0.081,-0.557,0.8619999999999999,151.016,-36.661,-16.104999999999997
1686018421.1904533,0.05,-0.29,0.86,110.42,-35.28,-18.95,-0.037000000000000005,-0.41899999999999993,0.9199999999999999,131.206,-30.579000000000008,-14.133
1686018421.213425,0.02,-0.27,0.86,118.02,-15.32,-22.65,-0.018000000000000002,-0.40099999999999997,0.9,125.33399999999999,-30.627999999999997,-12.975
1686018421.260448,0.11,-0.06,1.15,141.71,-50.17,-21.26,-0.0010000000000000037,-0.29000000000000004,0.9360000000000002,122.09899999999998,-30.367,-15.486
1686018421.2833886,0.07,0.01,1.24,107.77,-15.61,-23.61,0.0019999999999999974,-0.23500000000000004,0.983,119.98299999999999,-31.528000000000002,-15.544999999999998
1686018421.4010935,0.08,-0.02,0.96,25.97,26.3,-1.65,0.078,-0.030000000000000006,1.1219999999999999,90.405,-9.306999999999999,-19.279999999999998
1686018421.4233656,-0.01,-0.01,1.02,31.08,27.65,-5.38,0.08099999999999999,-0.008999999999999998,1.129,82.47100000000002,-3.0139999999999993,-17.923
1686018421.6105196,0.01,0.13,1.11,10.65,-3.52,2.65,-0.012,0.049,1.022,24.317,12.895,0.8489999999999999
1686018421.680689,-0.03,0.11,1.05,4.56,5.04,-0.56,-0.022,0.08399999999999999,1.0400000000000003,16.494999999999997,7.075,2.383
1686018421.7035618,-0.01,0.1,1.03,1.08,3.89,0.38,-0.019,0.093,1.049,13.925999999999998,6.171,2.1079999999999997
1686018421.8204532,0.01,0.13,1.03,13.1,-8.77,1.41,-0.025,0.094,1.004,6.906000000000001,-1.11,0.476
1686018421.8434474,0.01,0.11,1.02,11.04,-7.82,-0.08,-0.018999999999999996,0.097,1.004,6.945,-1.5400000000000003,0.2029999999999999
1686018421.8905983,-0.01,0.11,1.0,3.17,-1.58,2.38,-0.011,0.10200000000000001,0.9960000000000001,7.465000000000001,-2.063,-0.5840000000000001
1686018421.9134939,0.0,0.11,0.98,2.9,-5.47,3.73,-0.008,0.10900000000000001,1.0030000000000001,7.299000000000001,-3.114,-0.15500000000000003
1686018421.960455,-0.01,0.1,0.98,3.46,-0.81,1.73,0.0009999999999999996,0.11600000000000002,1.0010000000000001,7.343000000000001,-4.561,0.33199999999999996
1686018421.9834645,-0.0,0.12,0.99,2.78,0.44,1.01,0.0019999999999999996,0.11499999999999999,1.0000000000000002,6.659000000000001,-4.697000000000001,0.865
1686018422.0305293,0.01,0.11,0.97,3.64,-6.35,3.94,0.0,0.11199999999999999,0.9880000000000001,5.3050000000000015,-3.9499999999999993,1.9310000000000003
1686018422.0534863,-0.01,0.11,1.0,2.96,-0.56,1.68,-0.0019999999999999996,0.11100000000000002,0.9870000000000001,4.291,-3.1289999999999996,1.9580000000000002
1686018422.1005478,-0.0,0.11,0.99,4.21,-3.77,1.14,-0.003,0.11300000000000002,0.9869999999999999,3.6080000000000005,-2.724,2.08
1686018422.1235023,0.02,0.13,0.99,2.68,-0.81,-0.27,0.0,0.11600000000000002,0.9890000000000001,3.1270000000000002,-2.549,2.185
1686018422.1705756,0.01,0.13,0.99,1.55,-0.63,1.28,0.003,0.119,0.9890000000000001,2.7350000000000003,-2.0439999999999996,1.8820000000000001
1686018422.1934552,0.01,0.12,0.98,0.59,1.68,1.74,0.004,0.119,0.9880000000000001,2.4240000000000004,-1.3800000000000003,1.7429999999999999
1686018422.2405322,0.01,0.13,1.0,2.66,-2.62,0.24,0.006,0.121,0.9880000000000001,2.168,-1.6310000000000002,1.5740000000000003
1686018422.263422,0.02,0.13,0.99,0.42,0.56,0.6,0.009000000000000001,0.12199999999999997,0.9869999999999999,2.0330000000000004,-1.413,1.296
1686018422.5205934,-0.01,0.13,1.03,-3.67,5.08,-0.51,0.009000000000000001,0.12799999999999997,0.994,-0.5599999999999999,1.009,0.41500000000000004
1686018422.543492,0.01,0.15,1.05,-7.85,5.5,-1.44,0.008,0.131,1.001,-1.387,1.5030000000000001,0.21100000000000008
1686018422.5906718,-0.02,0.19,1.14,-13.38,4.63,-1.92,0.003,0.142,1.03,-3.6710000000000003,2.29,0.33000000000000007
1686018422.613479,0.01,0.21,1.21,-30.18,13.29,-6.95,0.003,0.15,1.0530000000000002,-6.712999999999999,3.7709999999999995,-0.38199999999999995
1686018422.6605353,0.0,0.21,1.24,-62.69,18.87,-4.59,0.001,0.174,1.125,-17.962,7.425,-1.816
1686018422.6834538,-0.02,0.17,1.26,-77.1,20.98,-4.96,-0.001,0.178,1.15,-25.651999999999997,9.541,-2.473
1686018422.7305038,-0.06,0.12,1.22,-114.02,30.11,-9.56,-0.013000000000000001,0.17600000000000002,1.209,-45.809999999999995,14.224,-4.28
1686018422.7534752,-0.08,0.04,1.16,-125.22,21.49,-8.42,-0.02,0.16300000000000003,1.216,-57.964999999999996,15.865000000000004,-5.071000000000001
1686018422.800581,-0.05,-0.06,1.08,-139.22,23.02,-5.05,-0.03,0.092,1.188,-83.028,18.42,-5.969
1686018422.8234916,-0.05,-0.12,0.97,-150.35,39.14,-12.17,-0.036,0.059,1.1600000000000001,-96.725,21.871000000000002,-6.994
1686018422.8705986,-0.08,-0.26,0.86,-138.6,39.49,-1.62,-0.049,-0.063,1.048,-107.56700000000001,24.491000000000003,-6.461
1686018422.8934567,-0.13,-0.3,0.92,-135.56,34.59,-2.2,-0.06,-0.10700000000000001,1.0150000000000001,-116.03299999999999,25.637,-5.658
1686018423.5815647,-0.13,-0.99,-0.33,-45.58,-6.33,-3.38,-0.123,-0.9830000000000002,-0.19,-67.47,-1.9509999999999998,-7.182999999999998
1686018423.721579,-0.1,-0.97,-0.36,-10.21,0.29,-0.93,-0.11400000000000002,-0.9810000000000001,-0.319,-37.796,-0.8509999999999993,-3.187
1686018424.001634,-0.11,-0.98,-0.28,39.22,-10.41,0.14,-0.11600000000000002,-0.9730000000000001,-0.32299999999999995,16.860999999999997,-3.4739999999999993,0.7449999999999999
1686018424.071607,-0.12,-0.97,-0.26,58.14,-7.82,-0.62,-0.12600000000000003,-0.9790000000000003,-0.30300000000000005,28.589999999999996,-5.15,0.915
1686018424.6805108,-0.03,-0.37,0.92,105.23,-1.73,-8.83,-0.022000000000000006,-0.5069999999999999,0.8709999999999999,134.69299999999998,-25.746000000000002,-8.849
1686018424.7034414,0.01,-0.34,0.86,119.76,-19.88,-5.47,-0.010000000000000002,-0.47400000000000003,0.8799999999999999,133.206,-26.803000000000004,-8.301
1686018424.7505462,0.04,-0.23,0.9,162.32,-55.28,-2.6,0.019,-0.374,0.907,136.314,-31.496000000000002,-6.9159999999999995
1686018424.7734475,0.04,-0.1,0.99,166.59,-56.18,-13.16,0.026000000000000002,-0.32699999999999996,0.9270000000000002,138.68,-34.944,-7.325
1686018424.820497,0.11,-0.01,1.24,92.5,23.71,1.77,0.062,-0.191,1.0110000000000001,133.72099999999998,-26.663999999999998,-6.988000000000001
1686018424.843522,0.04,-0.06,1.14,70.72,11.73,1.07,0.06000000000000001,-0.158,1.0320000000000003,127.94500000000001,-22.273000000000003,-5.731
1686018424.8905444,0.08,0.11,1.26,68.32,21.07,-18.23,0.069,-0.06499999999999997,1.0850000000000002,121.46999999999998,-17.754,-6.383
1686018424.9134839,0.12,0.16,1.28,37.01,22.33,-3.32,0.076,-0.025,1.1199999999999999,111.38900000000001,-12.259000000000002,-5.811000000000001
1686018424.9605615,0.01,0.08,1.12,24.21,-6.69,3.59,0.06000000000000001,0.031,1.1469999999999998,92.888,-9.708000000000002,-3.7320000000000007
1686018424.9834538,0.06,0.11,1.13,27.56,-12.57,3.88,0.05,0.039,1.136,80.527,-5.396999999999999,-3.41
1686018425.1004267,0.05,0.07,0.98,16.96,0.96,10.93,0.06200000000000001,0.07600000000000003,1.03,29.813,4.304,2.0389999999999997
1686018425.1235416,0.05,0.05,0.92,9.02,4.75,12.11,0.06700000000000002,0.07400000000000002,1.016,23.643,3.6060000000000003,3.143
1686018425.1706133,0.04,0.12,0.99,28.12,5.01,7.64,0.05299999999999999,0.065,0.9630000000000001,18.772000000000002,0.6119999999999999,5.964
1686018425.1935403,0.02,0.1,1.0,30.35,-4.53,9.97,0.049,0.068,0.959,20.229999999999997,-0.9,6.671000000000001
1686018425.3706245,0.02,0.14,1.01,-1.73,2.0,6.77,0.019999999999999997,0.146,1.025,19.165999999999997,3.5760000000000005,4.079000000000001
1686018425.3935614,0.01,0.14,0.98,-1.85,-2.63,5.5,0.020999999999999998,0.15100000000000002,1.0270000000000001,16.131,2.4680000000000004,4.726999999999999
1686018425.4406223,-0.03,0.1,0.95,-3.47,10.12,-2.02,0.013999999999999999,0.13800000000000004,1.006,9.851,3.596,2.684
1686018425.463537,-0.01,0.11,0.93,2.63,1.13,-4.29,0.009000000000000001,0.13300000000000003,0.9950000000000001,7.198,3.6350000000000007,1.7899999999999998
1686018425.580601,0.05,0.17,1.0,-1.22,1.37,1.7,0.026000000000000002,0.147,0.978,0.9529999999999997,1.877,1.9989999999999999
1686018425.6035614,0.05,0.16,0.99,0.41,-2.74,4.69,0.03,0.15099999999999997,0.9799999999999999,0.04699999999999998,1.053,1.7510000000000001
1686018425.8605757,0.04,0.14,0.98,1.88,-7.47,-3.1,0.027000000000000003,0.148,0.9890000000000001,0.39799999999999996,-1.1329999999999998,0.5690000000000002
1686018425.8835378,0.07,0.18,0.96,12.53,-7.53,-3.25,0.033,0.151,0.986,1.501,-1.845,0.4120000000000001
1686018426.1404424,0.04,0.44,0.91,124.11,-1.19,-6.98,0.084,0.267,0.9599999999999997,29.500999999999998,-8.095,0.9509999999999998
1686018426.1634777,0.07,0.44,0.91,98.93,-13.59,5.05,0.083,0.29,0.952,39.611000000000004,-9.530999999999999,1.4820000000000004
1686018426.4205427,0.07,0.72,0.58,92.81,45.82,7.56,0.09800000000000002,0.6319999999999999,0.6870000000000002,102.542,3.4830000000000005,8.373
1686018426.5506825,0.07,0.81,0.46,46.93,5.49,6.29,0.08099999999999999,0.773,0.54,93.109,10.17,10.766000000000002
1686018426.5734866,0.08,0.85,0.45,34.57,0.39,2.57,0.08199999999999999,0.79,0.524,86.754,11.514,9.892
1686018427.051685,0.1,0.88,0.34,11.29,-1.58,-1.37,0.10599999999999998,0.877,0.3449999999999999,9.478,0.308,-0.771
1686018427.8106165,0.09,0.89,0.31,-0.09,0.3,-0.92,0.08899999999999998,0.9030000000000001,0.299,0.704,0.34199999999999997,-0.946
1686018427.8335602,0.09,0.89,0.31,-1.44,0.5,-0.45,0.08899999999999998,0.9030000000000001,0.301,0.7,0.46900000000000003,-0.9409999999999998
1686018429.4217522,-0.08,-0.06,1.03,-11.11,6.77,2.2,-0.05499999999999999,-0.074,0.9879999999999999,-12.184999999999999,5.082000000000001,-6.974000000000001
1686018429.947702,-0.12,-0.28,0.94,-29.59,2.33,-1.68,-0.11600000000000002,-0.20600000000000002,0.9870000000000001,-27.633999999999997,4.865999999999999,-0.03499999999999992
1686018429.9706407,-0.18,-0.25,0.99,-24.77,2.75,-1.28,-0.123,-0.21399999999999997,0.983,-29.227999999999998,4.890999999999999,-0.628
1686018429.993526,-0.13,-0.28,0.98,-23.7,2.6,-1.8,-0.125,-0.22599999999999998,0.9800000000000001,-30.178000000000004,4.757,-1.074
1686018430.0517232,-0.09,-0.3,0.95,-30.78,6.62,-2.17,-0.11800000000000002,-0.261,0.9640000000000001,-31.334000000000003,3.875,-1.8340000000000003
1686018430.2277603,-0.15,-0.45,0.91,-50.78,7.65,-4.44,-0.12399999999999997,-0.369,0.913,-49.915,16.333,-1.418
1686018430.250631,-0.18,-0.48,0.86,-41.82,14.6,-2.18,-0.13299999999999998,-0.388,0.9019999999999999,-51.727,17.532999999999998,-1.456
1686018430.273551,-0.22,-0.49,0.8,-43.22,6.81,-6.41,-0.146,-0.40700000000000003,0.8870000000000001,-53.45799999999999,17.622,-1.6789999999999998
1686018430.2977526,-0.2,-0.52,0.9,-43.89,16.6,-7.85,-0.16699999999999998,-0.45,0.875,-54.76899999999999,18.619999999999997,-2.2470000000000003
1686018430.320692,-0.18,-0.53,0.8,-43.11,11.31,-9.17,-0.18,-0.47400000000000003,0.865,-54.995999999999995,17.892,-2.714
1686018430.3435247,-0.17,-0.57,0.83,-43.62,10.45,-3.86,-0.184,-0.49400000000000005,0.851,-54.068999999999996,16.16,-2.5810000000000004
1686018430.367751,-0.18,-0.53,0.86,-50.78,13.83,-5.5,-0.18299999999999997,-0.5080000000000001,0.842,-51.815,14.117,-3.2079999999999997
1686018430.390651,-0.2,-0.59,0.81,-41.16,10.54,-6.84,-0.18799999999999997,-0.521,0.841,-48.065,11.545000000000002,-4.284000000000001
1686018430.4135406,-0.2,-0.58,0.84,-44.26,9.49,-9.17,-0.19299999999999998,-0.534,0.834,-45.153999999999996,11.623000000000001,-5.5680000000000005
1686018430.4377134,-0.19,-0.61,0.8,-46.96,15.32,-7.01,-0.19,-0.556,0.828,-44.959999999999994,11.66,-6.243
1686018430.4606886,-0.19,-0.6,0.85,-54.62,3.07,-9.94,-0.18799999999999997,-0.5640000000000001,0.8219999999999998,-45.344,11.202000000000002,-6.793000000000001
1686018430.4835665,-0.16,-0.64,0.74,-48.5,0.14,-4.53,-0.18399999999999997,-0.576,0.8059999999999998,-46.01199999999999,9.755999999999998,-7.0280000000000005
1686018430.507804,-0.22,-0.63,0.74,-45.14,0.27,-3.8,-0.19199999999999998,-0.595,0.7929999999999999,-46.20399999999999,9.101999999999999,-6.767
1686018430.5306332,-0.22,-0.7,0.73,-52.2,0.45,-2.57,-0.19499999999999998,-0.612,0.7929999999999999,-47.035,7.486999999999999,-6.238999999999999
1686018430.5535223,-0.17,-0.65,0.68,-45.62,8.92,-3.22,-0.19399999999999998,-0.624,0.775,-47.285999999999994,7.248,-5.643999999999999
1686018430.577756,-0.19,-0.68,0.67,-46.29,16.12,5.4,-0.189,-0.639,0.743,-47.553,7.815,-4.717999999999999
1686018430.6817365,-0.22,-0.76,0.65,-52.84,0.53,-2.21,-0.209,-0.6940000000000001,0.682,-47.499,6.322,-2.562
1686018430.7177436,-0.22,-0.77,0.64,-40.99,-17.58,-2.81,-0.209,-0.7140000000000001,0.662,-46.136,4.257000000000001,-1.8489999999999998
1686018430.7406504,-0.2,-0.76,0.68,-45.88,-19.92,-1.02,-0.21200000000000002,-0.725,0.6619999999999999,-45.874,2.2510000000000003,-1.4979999999999998
1686018430.7635694,-0.13,-0.8,0.58,-49.62,-22.35,-1.38,-0.209,-0.7409999999999999,0.6539999999999999,-46.322,-0.010999999999999233,-1.2559999999999998
1686018430.787719,-0.14,-0.78,0.58,-45.25,-2.35,-4.35,-0.197,-0.763,0.632,-45.627,-0.29099999999999954,-1.4339999999999997
1686018430.8106499,-0.15,-0.84,0.55,-44.48,-24.05,-5.7,-0.18800000000000003,-0.775,0.623,-45.513000000000005,-3.5879999999999996,-1.6819999999999997
1686018430.833588,-0.16,-0.81,0.55,-46.95,-13.64,-8.71,-0.18100000000000002,-0.782,0.611,-45.579,-6.564,-3.0929999999999995
1686018430.8577504,-0.19,-0.84,0.53,-51.4,-13.98,-4.59,-0.173,-0.8009999999999999,0.5810000000000001,-46.349000000000004,-9.308000000000002,-3.647
1686018430.8805945,-0.2,-0.85,0.45,-47.98,-17.98,-7.53,-0.17099999999999999,-0.8099999999999999,0.5630000000000001,-46.786,-12.330000000000002,-4.212000000000001
1686018430.9035137,-0.1,-0.88,0.44,-42.21,-8.48,-6.69,-0.159,-0.8210000000000001,0.543,-46.76,-13.979999999999999,-4.499
1686018430.9277484,-0.13,-0.87,0.45,-40.81,-0.87,-4.36,-0.15299999999999997,-0.8389999999999999,0.5080000000000001,-45.557,-14.12,-4.7139999999999995
1686018430.9506655,-0.14,-0.87,0.45,-30.74,-7.44,-0.62,-0.15300000000000002,-0.8459999999999999,0.4990000000000001,-44.532,-13.106000000000003,-4.494999999999999
1686018430.9735756,-0.18,-0.88,0.49,-29.47,-1.44,-3.62,-0.157,-0.8560000000000001,0.49000000000000005,-42.891,-11.258000000000001,-4.754999999999999
1686018430.9977355,-0.16,-0.9,0.44,-27.05,-7.23,-5.56,-0.15799999999999997,-0.8710000000000001,0.46800000000000014,-40.634,-9.746000000000002,-5.173
1686018431.020642,-0.13,-0.88,0.47,-20.69,-14.96,-6.17,-0.15299999999999997,-0.874,0.462,-38.17800000000001,-11.007000000000001,-5.3549999999999995
1686018431.0435297,-0.11,-0.88,0.49,-21.28,-27.37,-4.21,-0.145,-0.8780000000000001,0.458,-35.85799999999999,-11.338999999999999,-5.206
1686018431.0675695,-0.11,-0.92,0.39,-18.9,-32.92,-3.64,-0.13700000000000004,-0.889,0.44800000000000006,-33.053,-13.267000000000001,-4.699000000000001
1686018431.0904794,-0.14,-0.91,0.47,-15.73,-32.83,-7.91,-0.137,-0.893,0.449,-29.486,-15.151999999999997,-5.031000000000001
1686018431.1124997,-0.08,-0.94,0.38,-11.79,-40.36,-6.68,-0.13200000000000003,-0.8999999999999998,0.442,-25.867,-17.390000000000004,-4.946
1686018431.1716561,-0.12,-0.91,0.42,-9.26,-0.45,-0.59,-0.11099999999999999,-0.9119999999999999,0.429,-19.311999999999998,-17.631,-4.302
1686018431.2418098,-0.12,-0.9,0.45,-3.14,-5.01,-2.29,-0.10600000000000001,-0.921,0.41500000000000004,-14.441000000000003,-16.964,-4.09
1686018431.591816,-0.08,-0.89,0.47,30.42,1.04,-1.52,-0.09199999999999998,-0.913,0.43000000000000005,13.216000000000003,-3.4900000000000007,-0.28700000000000003
1686018431.6617959,-0.11,-0.88,0.51,35.25,-14.96,3.08,-0.09,-0.9000000000000001,0.45699999999999996,19.598000000000003,-4.425,0.553
1686018431.7318485,-0.09,-0.85,0.53,40.83,-19.82,-0.72,-0.088,-0.877,0.503,27.083999999999996,-7.461000000000001,0.5800000000000001
1686018431.801665,-0.07,-0.82,0.62,45.04,6.99,-2.59,-0.083,-0.8539999999999999,0.552,33.774,-9.029,0.16900000000000004
1686018431.8717268,-0.1,-0.79,0.64,35.67,-3.95,-3.68,-0.08299999999999999,-0.8270000000000002,0.607,37.540000000000006,-6.915000000000001,-0.17799999999999994
1686018431.9416902,-0.08,-0.75,0.67,37.52,-5.94,0.11,-0.066,-0.792,0.646,39.786,-8.219000000000001,-0.30200000000000005
1686018432.0117216,-0.08,-0.73,0.69,77.53,-4.29,-16.12,-0.07500000000000001,-0.764,0.6609999999999999,45.121,-7.74,-3.5450000000000004
1686018432.0816019,-0.04,-0.63,0.71,77.07,-1.95,-12.24,-0.047,-0.715,0.6880000000000001,54.003,-6.31,-6.306
1686018432.2217572,0.0,-0.38,0.86,121.25,-9.31,-6.68,-0.026000000000000002,-0.5189999999999999,0.7750000000000001,78.72999999999999,-7.807999999999998,-7.417000000000002
1686018432.3517911,-0.04,-0.14,1.21,74.63,-9.25,-2.48,-0.054000000000000006,-0.33599999999999997,0.9420000000000002,95.922,-0.5700000000000002,-6.121999999999998
1686018432.421838,0.01,-0.09,1.15,40.96,-24.75,-0.14,-0.045,-0.23699999999999996,1.026,86.71000000000001,1.2890000000000001,-4.4719999999999995
1686018432.5617414,-0.04,-0.08,1.16,-15.97,-1.31,1.43,-0.015000000000000003,-0.09499999999999999,1.1199999999999999,45.358999999999995,1.5720000000000005,-2.473
1686018432.701757,-0.08,-0.15,1.34,-130.9,16.5,-15.86,-0.057999999999999996,-0.125,1.239,-23.006,0.9730000000000002,-3.177
1686018432.771755,0.01,-0.34,1.0,-159.49,-22.06,-3.41,-0.049,-0.18000000000000002,1.232,-62.886,-1.4179999999999995,-4.083
1686018432.8417568,-0.01,-0.5,0.75,-151.16,13.22,-0.62,-0.017,-0.281,1.0870000000000002,-96.87899999999999,4.220000000000001,-3.9929999999999994
1686018433.0516498,-0.13,-0.89,0.33,-122.75,4.21,-4.44,-0.05800000000000001,-0.7230000000000001,0.5090000000000001,-143.94,19.828,-0.4860000000000001
1686018433.2617733,-0.03,-0.98,-0.15,-94.78,7.25,5.83,-0.08100000000000002,-0.95,-0.001999999999999999,-126.976,15.151,0.6759999999999999
1686018433.3317642,-0.05,-0.95,-0.31,-84.66,17.86,6.74,-0.06,-0.959,-0.11100000000000002,-114.569,10.633000000000001,1.765
1686018433.437761,-0.12,-0.95,-0.46,-36.66,8.92,2.2,-0.065,-0.9539999999999997,-0.311,-80.737,7.803,3.9480000000000004
1686018433.460665,-0.09,-0.93,-0.49,-22.23,1.88,-0.63,-0.06999999999999999,-0.95,-0.347,-71.083,8.129000000000001,3.405
1686018433.483572,-0.06,-0.92,-0.48,-13.85,-1.41,0.21,-0.073,-0.944,-0.38,-61.372,6.901999999999999,3.5509999999999997
1686018433.5417943,-0.06,-0.91,-0.53,15.14,-0.2,1.26,-0.07600000000000003,-0.9339999999999999,-0.46799999999999997,-40.69100000000001,6.518000000000001,3.111
1686018433.611822,-0.1,-0.96,-0.34,31.47,9.88,3.65,-0.07899999999999999,-0.93,-0.466,-17.968999999999998,5.441000000000001,2.752
1686018433.6478486,-0.14,-1.0,-0.29,36.09,-4.42,1.62,-0.084,-0.9389999999999998,-0.433,-7.735999999999995,4.665000000000001,2.418
1686018433.670752,-0.07,-0.97,-0.32,40.54,-13.4,1.82,-0.082,-0.9430000000000002,-0.41600000000000004,2.2890000000000024,2.151,2.0900000000000003
1686018433.6936185,-0.07,-0.96,-0.31,40.9,-6.05,2.51,-0.083,-0.9469999999999998,-0.399,11.364,-0.08000000000000015,1.6789999999999998
1686018433.891791,-0.15,-0.95,-0.18,135.2,-11.98,8.83,-0.098,-0.943,-0.2750000000000001,73.88,-8.688,3.8089999999999997
1686018433.9618,-0.08,-0.88,0.17,110.35,1.19,8.0,-0.1,-0.9160000000000001,-0.06299999999999999,89.73500000000001,-8.582,3.7670000000000003
1686018434.1017895,-0.15,-0.81,0.57,159.74,-28.99,1.31,-0.12999999999999998,-0.875,0.345,119.329,-9.57,3.0649999999999995
1686018434.171807,-0.1,-0.66,0.52,192.9,-53.37,-6.68,-0.146,-0.8310000000000001,0.45599999999999985,136.167,-18.207,2.14
1686018434.2418516,0.09,-0.35,0.84,207.2,-48.54,5.95,-0.086,-0.693,0.5770000000000001,154.901,-27.601999999999997,0.502
1686018434.451734,-0.02,-0.03,1.32,32.09,-1.79,-9.68,-0.033,-0.12000000000000002,1.23,142.41400000000002,-21.092999999999996,0.16800000000000015
1686018434.5216825,-0.0,-0.08,1.09,4.93,-2.72,-6.47,-0.05500000000000001,-0.09699999999999999,1.228,108.64799999999998,-9.461,-1.0560000000000003
1686018434.5916557,0.04,-0.08,0.99,4.53,-3.32,0.15,-0.023,-0.08099999999999999,1.1540000000000001,67.57300000000001,0.8850000000000003,-1.2690000000000003
1686018434.837648,-0.15,-0.13,0.9,24.48,-13.47,10.92,-0.044000000000000004,-0.08,1.0050000000000001,10.783,-12.019,10.729000000000001
1686018434.8607244,-0.01,-0.1,1.0,26.48,-10.9,2.72,-0.046000000000000006,-0.081,1.0070000000000001,12.308,-12.017,11.315
1686018434.8835747,0.05,-0.01,0.96,29.65,-13.31,7.2,-0.04100000000000001,-0.077,1.0010000000000001,14.820000000000002,-13.016,12.020000000000001
1686018434.941788,0.05,0.05,1.02,65.59,-25.86,26.41,-0.021000000000000008,-0.05800000000000001,0.9940000000000001,23.509,-15.974,14.644000000000002
1686018435.1917996,0.0,0.46,0.67,89.7,-66.77,-16.45,-0.047,0.333,0.9029999999999999,131.48000000000002,27.603999999999996,17.654000000000003
1686018435.2618496,-0.01,0.57,0.69,34.29,-2.32,8.89,-0.05500000000000001,0.47000000000000003,0.791,130.294,24.018,14.592000000000002
1686018435.4017208,0.04,0.65,0.62,26.65,-35.46,24.87,-0.016999999999999998,0.6210000000000001,0.6719999999999999,111.79100000000001,3.100999999999997,7.313000000000001
1686018435.4717622,-0.1,0.93,0.57,90.0,18.36,-2.06,-0.026000000000000002,0.736,0.6070000000000001,70.994,-17.227999999999998,5.447000000000001
1686018435.5417852,-0.02,0.87,0.46,45.16,-0.54,3.77,-0.019,0.79,0.5630000000000001,56.359,-13.084999999999999,8.48
1686018435.7518072,0.05,0.93,0.38,1.11,-42.05,-3.89,-0.005,0.8700000000000001,0.343,35.89199999999999,-11.245,-4.8420000000000005
1686018435.8218908,0.02,0.93,0.33,47.34,12.68,-24.86,-0.015000000000000003,0.901,0.35000000000000003,28.915999999999997,-11.797999999999998,-9.019
1686018435.8919349,-0.12,1.02,0.21,6.99,-0.59,-17.32,-0.023,0.9369999999999999,0.331,21.900000000000002,-12.968999999999998,-13.681000000000001
1686018436.0318296,0.03,1.03,0.29,7.65,10.77,-3.79,-0.023,0.9189999999999999,0.32999999999999996,10.222000000000003,-8.31,-9.180000000000001
1686018436.1017666,0.04,0.95,0.35,-39.29,-32.35,17.53,-0.006000000000000002,0.922,0.308,3.345000000000001,-1.4610000000000003,-4.821000000000001
1686018436.1377788,0.12,0.9,0.52,-41.88,-23.17,10.09,0.046,0.9280000000000002,0.35500000000000004,-5.577000000000001,-5.046,-1.3259999999999994
1686018436.160679,0.08,0.9,0.52,-26.51,9.59,-6.72,0.05499999999999999,0.9390000000000001,0.371,-10.115000000000002,-3.8950000000000005,0.29500000000000054
1686018436.1836424,0.12,0.74,0.38,-11.89,45.23,-19.02,0.064,0.932,0.37299999999999994,-12.003,0.6869999999999997,0.125
1686018436.3477287,-0.26,0.9,0.36,9.98,38.74,-26.35,-0.055999999999999994,0.833,0.373,-5.622999999999999,19.632,-16.038
1686018436.3706622,-0.28,0.81,0.11,7.07,45.05,-30.23,-0.092,0.8240000000000001,0.33199999999999996,-0.7279999999999998,26.453999999999997,-20.07
1686018436.3929174,-0.29,0.74,0.1,20.56,24.45,-29.22,-0.133,0.8240000000000001,0.304,3.9790000000000005,27.939999999999998,-22.319999999999997
1686018436.417809,-0.25,0.77,0.18,14.74,-9.1,-24.53,-0.19,0.8220000000000001,0.269,6.642,22.507,-22.871
1686018436.4407117,-0.31,0.78,0.25,3.71,-20.77,-29.35,-0.215,0.8139999999999998,0.269,8.595999999999998,16.879999999999995,-23.898
1686018436.4627683,-0.25,0.76,0.3,14.47,-29.94,-39.67,-0.238,0.8130000000000001,0.269,12.967999999999998,11.753999999999996,-27.036
1686018436.602798,-0.35,0.83,0.13,44.72,133.4,-28.27,-0.20500000000000002,0.788,0.321,13.944999999999999,8.786,-28.395999999999997
1686018436.6277392,-0.33,0.79,0.17,16.08,40.41,-25.14,-0.21400000000000002,0.791,0.311,13.496999999999996,10.382,-27.988000000000007
1686018436.650688,-0.25,0.85,0.22,-30.35,10.29,-7.44,-0.21400000000000002,0.8,0.30300000000000005,8.988,12.321000000000002,-26.279000000000003
1686018436.672777,-0.22,0.8,0.11,-20.23,21.37,3.53,-0.22000000000000003,0.808,0.286,6.5939999999999985,16.535,-22.991
1686018436.7677333,-0.39,0.92,0.11,0.23,54.59,-21.41,-0.31999999999999995,0.906,0.21999999999999997,-6.768000000000001,34.55800000000001,-18.086
1686018436.7907243,-0.3,0.89,0.24,11.11,4.68,-23.01,-0.315,0.9120000000000001,0.23099999999999996,1.1659999999999981,38.66199999999999,-18.389
1686018436.812794,-0.26,0.81,0.26,10.72,-2.87,-31.74,-0.309,0.9140000000000003,0.24100000000000002,-1.2810000000000008,33.195,-19.342
1686018436.9077718,-0.28,0.65,0.21,-48.14,7.34,-7.13,-0.29400000000000004,0.805,0.20299999999999999,-7.146000000000001,22.923000000000002,-18.948999999999998
1686018436.9307246,-0.26,0.76,0.13,-41.88,30.45,5.65,-0.293,0.787,0.18299999999999997,-8.779,26.091,-17.9
1686018436.9536364,-0.45,0.98,0.18,-43.85,14.63,7.55,-0.3,0.7939999999999999,0.18799999999999997,-12.087,26.399,-14.491999999999999
1686018437.1517942,-0.16,0.7,0.92,-186.6,-141.46,99.8,-0.268,0.797,0.533,-132.48,-71.714,46.162
1686018437.4117582,0.57,-0.02,0.91,-100.62,-83.76,46.78,0.352,0.14800000000000002,0.9049999999999999,-147.57800000000003,-133.118,94.452
1686018437.447761,0.51,-0.19,0.74,-92.36,-81.56,17.88,0.4699999999999999,0.0019999999999999935,0.89,-138.15400000000002,-127.128,86.26
1686018437.470706,0.68,-0.43,0.62,-75.2,-73.71,22.9,0.506,-0.059,0.8480000000000001,-125.224,-120.75600000000001,77.242
1686018437.4936998,0.58,-0.24,0.55,-120.05,-81.23,40.03,0.5189999999999999,-0.096,0.805,-118.89699999999998,-113.33500000000001,67.72200000000001
1686018437.5518608,0.85,-0.39,0.82,-38.78,-181.19,15.04,0.61,-0.21000000000000002,0.745,-100.81199999999998,-120.796,48.769999999999996
1686018437.5879288,0.82,-0.39,0.52,-55.28,33.68,22.96,0.663,-0.28700000000000003,0.667,-93.55499999999999,-104.93800000000002,42.337
1686018437.610748,0.72,-0.36,0.38,-79.89,-26.92,22.08,0.6809999999999999,-0.321,0.63,-88.81899999999999,-94.949,36.376999999999995
1686018437.6336737,0.71,-0.4,0.45,-64.48,-105.95,11.73,0.706,-0.346,0.5980000000000001,-83.68499999999999,-91.297,30.397000000000002
1686018437.6578186,0.91,-0.6,0.5,-35.26,-72.23,4.18,0.767,-0.4,0.563,-76.66999999999999,-86.46000000000001,23.872
1686018437.6807575,0.98,-0.56,0.38,-33.86,4.03,19.38,0.807,-0.43200000000000005,0.5459999999999999,-69.994,-77.68100000000001,21.132
1686018437.7028537,0.86,-0.42,0.35,-46.92,-34.18,33.13,0.836,-0.44699999999999995,0.5189999999999999,-65.44999999999999,-72.943,22.656999999999996
1686018438.0077899,0.86,-0.43,0.54,52.78,60.74,17.02,0.9069999999999998,-0.5209999999999999,0.433,19.452,46.017999999999994,6.8069999999999995
1686018438.0306387,0.73,-0.35,0.48,30.18,15.37,8.45,0.8950000000000001,-0.5079999999999999,0.45299999999999996,25.208000000000002,42.725,7.098999999999999
1686018438.0535874,0.72,-0.39,0.54,33.91,-9.04,7.14,0.8780000000000001,-0.49499999999999994,0.4749999999999999,29.544999999999995,40.635,7.296000000000001
1686018438.427806,0.52,-0.08,0.87,51.34,35.26,-45.73,0.5660000000000001,-0.202,0.7899999999999999,53.94699999999999,62.713,-39.304
1686018438.4507415,0.58,-0.08,0.94,59.08,41.44,-50.14,0.5509999999999999,-0.17700000000000005,0.8019999999999999,53.699,64.099,-42.616
1686018438.4737196,0.54,-0.02,0.92,42.83,45.76,-49.25,0.5410000000000001,-0.15000000000000005,0.818,50.563999999999986,62.102,-44.392
1686018438.5317373,0.54,0.02,0.94,44.09,47.28,-44.05,0.528,-0.071,0.8799999999999999,46.592999999999996,51.04100000000001,-45.702999999999996
